Timestamp,Accel_x,Accel_y,Accel_z,Gyro_x,Gyro_y,Gyro_z,Mag_x,Mag_y,Mag_z,Light intensity
80,-0.121211,1.163680,8.397372,0.000000,0.000000,0.000000,0.000000,0.000000,0.000000,0.000000
83,-0.166725,1.151702,8.416536,0.000000,0.000000,0.000000,0.000000,0.000000,0.000000,344.000000
85,-0.181098,1.178053,8.454864,0.000000,0.000000,0.000000,0.000000,0.000000,0.000000,344.000000
88,-0.140375,1.156493,8.521937,0.000000,0.000000,0.000000,0.000000,0.000000,0.000000,344.000000
90,-0.142771,1.168471,8.521937,0.000000,0.000000,0.000000,0.000000,0.000000,0.000000,344.000000
93,-0.161934,1.144516,8.557869,0.000000,0.000000,0.000000,0.000000,0.000000,0.000000,344.000000
95,-0.197867,1.110979,8.589010,0.000000,0.000000,0.000000,0.000000,0.000000,0.000000,344.000000
93,-0.197867,1.110979,8.589010,0.000000,0.000000,0.000000,-19.325577,-0.052132,-38.510735,344.000000
98,-0.200262,1.132539,8.629733,0.000000,0.000000,0.000000,-19.325577,-0.052132,-38.510735,344.000000
100,-0.221821,1.110979,8.682434,0.000000,0.000000,0.000000,-19.325577,-0.052132,-38.510735,344.000000
103,-0.250567,1.103793,8.668061,0.000000,0.000000,0.000000,-19.325577,-0.052132,-38.510735,344.000000
105,-0.250567,1.103793,8.668061,-0.145688,0.031741,-0.091129,-19.325577,-0.052132,-38.510735,344.000000
103,-0.250567,1.103793,8.668061,-0.145688,0.031741,-0.091129,-19.994831,1.646500,-39.200272,344.000000
105,-0.236194,1.151702,8.684830,-0.145688,0.031741,-0.091129,-19.994831,1.646500,-39.200272,344.000000
108,-0.272126,1.151702,8.732739,-0.145688,0.031741,-0.091129,-19.994831,1.646500,-39.200272,344.000000
110,-0.272126,1.151702,8.732739,-0.145156,0.033339,-0.093260,-19.994831,1.646500,-39.200272,344.000000
110,-0.329618,1.108584,8.775859,-0.145156,0.033339,-0.093260,-19.994831,1.646500,-39.200272,344.000000
113,-0.286499,1.156493,8.845326,-0.145156,0.033339,-0.093260,-19.994831,1.646500,-39.200272,344.000000
113,-0.286499,1.156493,8.845326,-0.145156,0.033339,-0.093260,-19.976410,0.521904,-39.805031,344.000000
115,-0.286499,1.156493,8.845326,-0.148884,0.002979,-0.095923,-19.976410,0.521904,-39.805031,344.000000
115,-0.262545,1.132539,8.850118,-0.148884,0.002979,-0.095923,-19.976410,0.521904,-39.805031,344.000000
118,-0.291290,1.127748,8.948333,-0.148884,0.002979,-0.095923,-19.976410,0.521904,-39.805031,344.000000
120,-0.379923,1.122957,9.020196,-0.148884,0.002979,-0.095923,-19.976410,0.521904,-39.805031,344.000000
120,-0.379923,1.122957,9.020196,-0.145688,-0.018326,-0.091129,-19.976410,0.521904,-39.805031,344.000000
123,-0.396691,1.094211,9.144761,-0.145688,-0.018326,-0.091129,-19.976410,0.521904,-39.805031,344.000000
125,-0.379923,1.094211,9.159135,-0.145688,-0.018326,-0.091129,-19.976410,0.521904,-39.805031,344.000000
125,-0.379923,1.094211,9.159135,-0.143558,-0.011935,-0.083140,-19.976410,0.521904,-39.805031,344.000000
123,-0.379923,1.094211,9.159135,-0.143558,-0.011935,-0.083140,-19.325577,-0.052132,-38.510735,344.000000
128,-0.379923,1.060674,9.202253,-0.143558,-0.011935,-0.083140,-19.325577,-0.052132,-38.510735,344.000000
130,-0.435019,1.079838,9.278909,-0.143558,-0.011935,-0.083140,-19.325577,-0.052132,-38.510735,344.000000
130,-0.435019,1.079838,9.278909,-0.137166,0.001381,-0.068759,-19.325577,-0.052132,-38.510735,344.000000
133,-0.446996,1.029533,9.355563,-0.137166,0.001381,-0.068759,-19.325577,-0.052132,-38.510735,344.000000
135,-0.446996,1.029533,9.355563,-0.121187,0.009903,-0.054910,-19.325577,-0.052132,-38.510735,344.000000
135,-0.444601,1.046301,9.410660,-0.121187,0.009903,-0.054910,-19.325577,-0.052132,-38.510735,344.000000
133,-0.444601,1.046301,9.410660,-0.121187,0.009903,-0.054910,-19.969486,0.525311,-37.883965,344.000000
138,-0.413460,1.108584,9.451383,-0.121187,0.009903,-0.054910,-19.969486,0.525311,-37.883965,344.000000
140,-0.463765,1.060674,9.513665,-0.121187,0.009903,-0.054910,-19.969486,0.525311,-37.883965,344.000000
140,-0.463765,1.060674,9.513665,-0.107339,0.019490,-0.042127,-19.969486,0.525311,-37.883965,344.000000
143,-0.482929,1.106188,9.573552,-0.107339,0.019490,-0.042127,-19.969486,0.525311,-37.883965,344.000000
143,-0.482929,1.106188,9.573552,-0.107339,0.019490,-0.042127,-18.061928,0.481586,-37.896599,344.000000
145,-0.492510,1.084629,9.592716,-0.107339,0.019490,-0.042127,-18.061928,0.481586,-37.896599,344.000000
145,-0.492510,1.084629,9.592716,-0.086033,0.030143,-0.031475,-18.061928,0.481586,-37.896599,344.000000
148,-0.526047,1.034324,9.678953,-0.086033,0.030143,-0.031475,-18.061928,0.481586,-37.896599,344.000000
150,-0.475742,1.051092,9.616672,-0.086033,0.030143,-0.031475,-18.061928,0.481586,-37.896599,344.000000
150,-0.475742,1.051092,9.616672,-0.058337,0.037067,-0.024550,-18.061928,0.481586,-37.896599,344.000000
153,-0.475742,1.012765,9.568762,-0.058337,0.037067,-0.024550,-18.061928,0.481586,-37.896599,344.000000
155,-0.475742,1.012765,9.568762,-0.032770,0.038133,-0.024550,-18.061928,0.481586,-37.896599,344.000000
153,-0.475742,1.012765,9.568762,-0.032770,0.038133,-0.024550,-19.341694,1.073601,-37.265617,344.000000
155,-0.490115,0.998392,9.676558,-0.032770,0.038133,-0.024550,-19.341694,1.073601,-37.265617,344.000000
158,-0.478138,0.969646,9.633439,-0.032770,0.038133,-0.024550,-19.341694,1.073601,-37.265617,344.000000
160,-0.478138,0.969646,9.633439,-0.005073,0.030143,-0.027213,-19.341694,1.073601,-37.265617,344.000000
160,-0.516465,0.960064,9.592716,-0.005073,0.030143,-0.027213,-19.341694,1.073601,-37.265617,344.000000
163,-0.521256,0.986414,9.626252,-0.005073,0.030143,-0.027213,-19.341694,1.073601,-37.265617,344.000000
165,-0.521256,0.986414,9.626252,0.021558,0.028013,-0.038399,-19.341694,1.073601,-37.265617,344.000000
163,-0.521256,0.986414,9.626252,0.021558,0.028013,-0.038399,-19.358974,1.631924,-39.204483,344.000000
165,-0.470951,0.984019,9.602299,0.021558,0.028013,-0.038399,-19.358974,1.631924,-39.204483,344.000000
168,-0.408669,1.022346,9.561576,0.021558,0.028013,-0.038399,-19.358974,1.631924,-39.204483,344.000000
170,-0.396691,0.993601,9.544806,0.021558,0.028013,-0.038399,-19.358974,1.631924,-39.204483,344.000000
170,-0.396691,0.993601,9.544806,0.040200,0.032274,-0.043192,-19.358974,1.631924,-39.204483,344.000000
173,-0.370341,1.039115,9.482525,0.040200,0.032274,-0.043192,-19.358974,1.631924,-39.204483,344.000000
175,-0.370341,1.039115,9.482525,0.061506,0.041861,-0.050649,-19.358974,1.631924,-39.204483,344.000000
175,-0.298477,1.063070,9.482525,0.061506,0.041861,-0.050649,-19.358974,1.631924,-39.204483,344.000000
173,-0.298477,1.063070,9.482525,0.061506,0.041861,-0.050649,-17.449112,1.589336,-38.576767,344.000000
178,-0.332013,1.079838,9.434614,0.061506,0.041861,-0.050649,-17.449112,1.589336,-38.576767,344.000000
180,-0.293686,1.099002,9.389100,0.061506,0.041861,-0.050649,-17.449112,1.589336,-38.576767,344.000000
180,-0.293686,1.099002,9.389100,0.074289,0.051448,-0.060237,-17.449112,1.589336,-38.576767,344.000000
183,-0.315245,1.134934,9.348377,0.074289,0.051448,-0.060237,-17.449112,1.589336,-38.576767,344.000000
185,-0.327222,1.130143,9.331610,0.074289,0.051448,-0.060237,-17.449112,1.589336,-38.576767,344.000000
185,-0.327222,1.130143,9.331610,0.081213,0.053579,-0.069824,-17.449112,1.589336,-38.576767,344.000000
183,-0.327222,1.130143,9.331610,0.081213,0.053579,-0.069824,-18.058491,-0.083549,-39.799866,344.000000
188,-0.305663,1.182844,9.209439,0.081213,0.053579,-0.069824,-18.058491,-0.083549,-39.799866,344.000000
190,-0.296081,1.158889,9.257349,0.081213,0.053579,-0.069824,-18.058491,-0.083549,-39.799866,344.000000
190,-0.296081,1.158889,9.257349,0.086007,0.041328,-0.078346,-18.058491,-0.083549,-39.799866,344.000000
193,-0.296081,1.180448,9.254953,0.086007,0.041328,-0.078346,-18.058491,-0.083549,-39.799866,344.000000
195,-0.296081,1.180448,9.254953,0.083343,0.021088,-0.089531,-18.058491,-0.083549,-39.799866,344.000000
195,-0.353573,1.178053,9.216626,0.083343,0.021088,-0.089531,-18.058491,-0.083549,-39.799866,344.000000
193,-0.353573,1.178053,9.216626,0.083343,0.021088,-0.089531,-19.348614,1.070194,-39.186691,344.000000
198,-0.327222,1.199612,9.259745,0.083343,0.021088,-0.089531,-19.348614,1.070194,-39.186691,344.000000
200,-0.317641,1.197216,9.290885,0.083343,0.021088,-0.089531,-19.348614,1.070194,-39.186691,344.000000
200,-0.317641,1.197216,9.290885,0.086007,0.002446,-0.100184,-19.348614,1.070194,-39.186691,344.000000
203,-0.269731,1.209194,9.254953,0.086007,0.002446,-0.100184,-19.348614,1.070194,-39.186691,344.000000
205,-0.286499,1.192425,9.223812,0.086007,0.002446,-0.100184,-19.348614,1.070194,-39.186691,344.000000
205,-0.286499,1.192425,9.223812,0.093463,-0.003945,-0.109771,-19.348614,1.070194,-39.186691,344.000000
203,-0.286499,1.192425,9.223812,0.093463,-0.003945,-0.109771,-17.418022,-0.095856,-38.523369,344.000000
208,-0.233799,1.242730,9.204648,0.093463,-0.003945,-0.109771,-17.418022,-0.095856,-38.523369,344.000000
210,-0.236194,1.252312,9.271723,0.093463,-0.003945,-0.109771,-17.418022,-0.095856,-38.523369,344.000000
210,-0.236194,1.252312,9.271723,0.101986,-0.003945,-0.118294,-17.418022,-0.095856,-38.523369,344.000000
213,-0.236194,1.300222,9.317237,0.101986,-0.003945,-0.118294,-17.418022,-0.095856,-38.523369,344.000000
215,-0.236194,1.300222,9.317237,0.111573,0.001914,-0.123087,-17.418022,-0.095856,-38.523369,344.000000
215,-0.274522,1.362504,9.228603,0.111573,0.001914,-0.123087,-17.418022,-0.095856,-38.523369,344.000000
213,-0.274522,1.362504,9.228603,0.111573,0.001914,-0.123087,-17.424942,-0.099262,-40.444435,344.000000
218,-0.248172,1.422391,9.221417,0.111573,0.001914,-0.123087,-17.424942,-0.099262,-40.444435,344.000000
220,-0.248172,1.422391,9.221417,0.114769,0.011501,-0.119891,-17.424942,-0.099262,-40.444435,344.000000
220,-0.229008,1.446346,9.185485,0.114769,0.011501,-0.119891,-17.424942,-0.099262,-40.444435,344.000000
223,-0.193076,1.446346,9.187881,0.114769,0.011501,-0.119891,-17.424942,-0.099262,-40.444435,344.000000
225,-0.193076,1.446346,9.187881,0.115301,0.022154,-0.110304,-17.424942,-0.099262,-40.444435,344.000000
225,-0.238590,1.465510,9.154344,0.115301,0.022154,-0.110304,-17.424942,-0.099262,-40.444435,344.000000
223,-0.238590,1.465510,9.154344,0.115301,0.022154,-0.110304,-18.059624,0.482719,-37.256241,344.000000
228,-0.224217,1.494256,9.149552,0.115301,0.022154,-0.110304,-18.059624,0.482719,-37.256241,344.000000
230,-0.224217,1.494256,9.149552,0.111573,0.037067,-0.094325,-18.059624,0.482719,-37.256241,344.000000
230,-0.221821,1.494256,9.159135,0.111573,0.037067,-0.094325,-18.059624,0.482719,-37.256241,344.000000
233,-0.219426,1.520606,9.142366,0.111573,0.037067,-0.094325,-18.059624,0.482719,-37.256241,344.000000
235,-0.219426,1.520606,9.142366,0.097725,0.054111,-0.075683,-18.059624,0.482719,-37.256241,344.000000
235,-0.245776,1.527793,9.223812,0.097725,0.054111,-0.075683,-18.059624,0.482719,-37.256241,344.000000
233,-0.245776,1.527793,9.223812,0.097725,0.054111,-0.075683,-19.342861,0.506191,-40.449600,344.000000
238,-0.233799,1.525397,9.223812,0.097725,0.054111,-0.075683,-19.342861,0.506191,-40.449600,344.000000
240,-0.233799,1.525397,9.223812,0.075354,0.070623,-0.056508,-19.342861,0.506191,-40.449600,344.000000
240,-0.288895,1.501442,9.233395,0.075354,0.070623,-0.056508,-19.342861,0.506191,-40.449600,344.000000
243,-0.286499,1.508629,9.276513,0.075354,0.070623,-0.056508,-19.342861,0.506191,-40.449600,344.000000
245,-0.286499,1.508629,9.276513,0.051386,0.068493,-0.039464,-19.342861,0.506191,-40.449600,344.000000
245,-0.322432,1.563725,9.326818,0.051386,0.068493,-0.039464,-19.342861,0.506191,-40.449600,344.000000
243,-0.322432,1.563725,9.326818,0.051386,0.068493,-0.039464,-18.079216,1.039913,-39.835464,344.000000
248,-0.370341,1.561329,9.331610,0.051386,0.068493,-0.039464,-18.079216,1.039913,-39.835464,344.000000
250,-0.370341,1.561329,9.331610,0.023156,0.051448,-0.026681,-18.079216,1.039913,-39.835464,344.000000
250,-0.353573,1.549352,9.422637,0.023156,0.051448,-0.026681,-18.079216,1.039913,-39.835464,344.000000
253,-0.334409,1.506233,9.437011,0.023156,0.051448,-0.026681,-18.079216,1.039913,-39.835464,344.000000
255,-0.334409,1.506233,9.437011,0.001318,0.021088,-0.016561,-18.079216,1.039913,-39.835464,344.000000
253,-0.334409,1.506233,9.437011,0.001318,0.021088,-0.016561,-18.051567,-0.080143,-37.878799,344.000000
255,-0.332013,1.570911,9.540015,0.001318,0.021088,-0.016561,-18.051567,-0.080143,-37.878799,344.000000
258,-0.382318,1.520606,9.734050,0.001318,0.021088,-0.016561,-18.051567,-0.080143,-37.878799,344.000000
260,-0.382318,1.520606,9.734050,-0.014661,-0.007141,-0.001115,-18.051567,-0.080143,-37.878799,344.000000
260,-0.379923,1.463115,9.892152,-0.014661,-0.007141,-0.001115,-18.051567,-0.080143,-37.878799,344.000000
263,-0.379923,1.467906,9.987970,-0.014661,-0.007141,-0.001115,-18.051567,-0.080143,-37.878799,344.000000
265,-0.379923,1.467906,9.987970,-0.018922,-0.026316,0.007940,-18.051567,-0.080143,-37.878799,344.000000
263,-0.379923,1.467906,9.987970,-0.018922,-0.026316,0.007940,-19.966049,-0.039825,-39.787231,344.000000
265,-0.415855,1.448742,10.064626,-0.018922,-0.026316,0.007940,-19.966049,-0.039825,-39.787231,344.000000
268,-0.442205,1.367295,10.203564,-0.018922,-0.026316,0.007940,-19.966049,-0.039825,-39.787231,344.000000
270,-0.442205,1.367295,10.203564,-0.009334,-0.031110,0.016995,-19.966049,-0.039825,-39.787231,344.000000
270,-0.408669,1.328968,10.347291,-0.009334,-0.031110,0.016995,-19.966049,-0.039825,-39.787231,344.000000
273,-0.408669,1.305013,10.447903,-0.009334,-0.031110,0.016995,-19.966049,-0.039825,-39.787231,344.000000
275,-0.408669,1.305013,10.447903,0.009308,-0.028446,0.027648,-19.966049,-0.039825,-39.787231,344.000000
273,-0.408669,1.305013,10.447903,0.009308,-0.028446,0.027648,-16.763756,-1.235027,-39.132339,344.000000
275,-0.439810,1.221171,10.491020,0.009308,-0.028446,0.027648,-16.763756,-1.235027,-39.132339,344.000000
278,-0.427833,1.175657,10.488626,0.009308,-0.028446,0.027648,-16.763756,-1.235027,-39.132339,344.000000
280,-0.427833,1.175657,10.488626,0.032743,-0.032708,0.033507,-16.763756,-1.235027,-39.132339,344.000000
280,-0.454183,1.122957,10.474253,0.032743,-0.032708,0.033507,-16.763756,-1.235027,-39.132339,344.000000
283,-0.437414,1.082233,10.570071,0.032743,-0.032708,0.033507,-16.763756,-1.235027,-39.132339,344.000000
285,-0.437414,1.082233,10.570071,0.055647,-0.041230,0.039898,-16.763756,-1.235027,-39.132339,344.000000
285,-0.446996,1.051092,10.646727,0.055647,-0.041230,0.039898,-16.763756,-1.235027,-39.132339,344.000000
283,-0.446996,1.051092,10.646727,0.055647,-0.041230,0.039898,-19.327885,-0.053268,-39.151093,344.000000
288,-0.403878,1.007974,10.653913,0.055647,-0.041230,0.039898,-19.327885,-0.053268,-39.151093,344.000000
290,-0.403878,1.007974,10.653913,0.074289,-0.051350,0.040431,-19.327885,-0.053268,-39.151093,344.000000
290,-0.458974,0.986414,10.795246,0.074289,-0.051350,0.040431,-19.327885,-0.053268,-39.151093,344.000000
293,-0.418251,1.003183,10.732964,0.074289,-0.051350,0.040431,-19.327885,-0.053268,-39.151093,344.000000
295,-0.418251,1.003183,10.732964,0.097725,-0.057209,0.043094,-19.327885,-0.053268,-39.151093,344.000000
295,-0.413460,0.967251,10.802432,0.097725,-0.057209,0.043094,-19.327885,-0.053268,-39.151093,344.000000
293,-0.413460,0.967251,10.802432,0.097725,-0.057209,0.043094,-16.156681,0.436726,-38.549591,344.000000
298,-0.406273,0.974437,10.756918,0.097725,-0.057209,0.043094,-16.156681,0.436726,-38.549591,344.000000
300,-0.406273,0.974437,10.756918,0.114769,-0.055078,0.042561,-16.156681,0.436726,-38.549591,344.000000
300,-0.379923,0.955273,10.778479,0.114769,-0.055078,0.042561,-16.156681,0.436726,-38.549591,344.000000
303,-0.389505,0.995996,10.812015,0.114769,-0.055078,0.042561,-16.156681,0.436726,-38.549591,344.000000
305,-0.389505,0.995996,10.812015,0.129150,-0.057209,0.042029,-16.156681,0.436726,-38.549591,344.000000
305,-0.437414,1.007974,10.790456,0.129150,-0.057209,0.042029,-16.156681,0.436726,-38.549591,344.000000
303,-0.437414,1.007974,10.790456,0.129150,-0.057209,0.042029,-16.794846,0.450165,-39.185738,344.000000
308,-0.415855,1.039115,10.826387,0.129150,-0.057209,0.042029,-16.794846,0.450165,-39.185738,344.000000
310,-0.415855,1.039115,10.826387,0.147259,-0.066263,0.040431,-16.794846,0.450165,-39.185738,344.000000
310,-0.454183,1.055883,10.850343,0.147259,-0.066263,0.040431,-16.794846,0.450165,-39.185738,344.000000
313,-0.420646,1.084629,10.776082,0.147259,-0.066263,0.040431,-16.794846,0.450165,-39.185738,344.000000
315,-0.420646,1.084629,10.776082,0.160575,-0.077981,0.036702,-16.794846,0.450165,-39.185738,344.000000
313,-0.420646,1.084629,10.776082,0.160575,-0.077981,0.036702,-17.399605,-1.220455,-39.128128,344.000000
315,-0.413460,1.103793,10.783270,0.160575,-0.077981,0.036702,-17.399605,-1.220455,-39.128128,344.000000
318,-0.430228,1.043906,10.833574,0.160575,-0.077981,0.036702,-17.399605,-1.220455,-39.128128,344.000000
320,-0.430228,1.043906,10.833574,0.178685,-0.076383,0.031909,-17.399605,-1.220455,-39.128128,344.000000
320,-0.439810,1.060674,10.864716,0.178685,-0.076383,0.031909,-17.399605,-1.220455,-39.128128,344.000000
323,-0.408669,1.089420,10.812015,0.178685,-0.076383,0.031909,-17.399605,-1.220455,-39.128128,344.000000
325,-0.408669,1.089420,10.812015,0.192533,-0.063600,0.028180,-17.399605,-1.220455,-39.128128,344.000000
325,-0.401482,1.082233,10.831179,0.192533,-0.063600,0.028180,-17.399605,-1.220455,-39.128128,344.000000
323,-0.401482,1.082233,10.831179,0.192533,-0.063600,0.028180,-17.415714,-0.094719,-37.883011,344.000000
328,-0.435019,1.034324,10.826387,0.192533,-0.063600,0.028180,-17.415714,-0.094719,-37.883011,344.000000
330,-0.435019,1.034324,10.826387,0.204251,-0.051350,0.023919,-17.415714,-0.094719,-37.883011,344.000000
330,-0.425437,1.027137,10.958138,0.204251,-0.051350,0.023919,-17.415714,-0.094719,-37.883011,344.000000
333,-0.408669,0.972041,10.895857,0.204251,-0.051350,0.023919,-17.415714,-0.094719,-37.883011,344.000000
333,-0.408669,0.972041,10.895857,0.204251,-0.051350,0.023919,-19.959126,-0.036419,-37.866165,344.000000
335,-0.375132,0.955273,10.903043,0.204251,-0.051350,0.023919,-19.959126,-0.036419,-37.866165,344.000000
335,-0.375132,0.955273,10.903043,0.211175,-0.039099,0.019125,-19.959126,-0.036419,-37.866165,344.000000
338,-0.360759,0.940900,10.857529,0.211175,-0.039099,0.019125,-19.959126,-0.036419,-37.866165,344.000000
340,-0.360759,0.940900,10.857529,0.215436,-0.024185,0.013799,-19.959126,-0.036419,-37.866165,344.000000
340,-0.334409,0.938505,10.907833,0.215436,-0.024185,0.013799,-19.959126,-0.036419,-37.866165,344.000000
343,-0.348782,0.883409,10.962930,0.215436,-0.024185,0.013799,-19.959126,-0.036419,-37.866165,344.000000
345,-0.348782,0.883409,10.962930,0.215436,-0.010337,0.013267,-19.959126,-0.036419,-37.866165,344.000000
343,-0.348782,0.883409,10.962930,0.215436,-0.010337,0.013267,-18.079216,1.039913,-39.835464,344.000000
345,-0.391900,0.909759,10.943767,0.215436,-0.010337,0.013267,-18.079216,1.039913,-39.835464,344.000000
348,-0.408669,0.876222,10.931788,0.215436,-0.010337,0.013267,-18.079216,1.039913,-39.835464,344.000000
350,-0.408669,0.876222,10.931788,0.215436,0.006707,0.018060,-18.079216,1.039913,-39.835464,344.000000
350,-0.391900,0.876222,10.883880,0.215436,0.006707,0.018060,-18.079216,1.039913,-39.835464,344.000000
353,-0.389505,0.907364,10.965325,0.215436,0.006707,0.018060,-18.079216,1.039913,-39.835464,344.000000
352,-0.389505,0.907364,10.965325,0.215436,0.006707,0.018060,-18.079216,1.039913,-39.835464,324.000000
355,-0.389505,0.907364,10.965325,0.212773,0.031208,0.028180,-18.079216,1.039913,-39.835464,324.000000
353,-0.389505,0.907364,10.965325,0.212773,0.031208,0.028180,-17.397297,-1.219318,-38.487778,324.000000
355,-0.413460,0.926527,10.934184,0.212773,0.031208,0.028180,-17.397297,-1.219318,-38.487778,324.000000
358,-0.391900,0.936109,10.941370,0.212773,0.031208,0.028180,-17.397297,-1.219318,-38.487778,324.000000
360,-0.391900,0.936109,10.941370,0.209045,0.058373,0.036702,-17.397297,-1.219318,-38.487778,324.000000
360,-0.377528,0.991205,11.010839,0.209045,0.058373,0.036702,-17.397297,-1.219318,-38.487778,324.000000
363,-0.382318,1.019951,11.015631,0.209045,0.058373,0.036702,-17.397297,-1.219318,-38.487778,324.000000
365,-0.382318,1.019951,11.015631,0.203718,0.088200,0.041496,-17.397297,-1.219318,-38.487778,324.000000
365,-0.363155,1.072652,10.936580,0.203718,0.088200,0.041496,-17.397297,-1.219318,-38.487778,324.000000
363,-0.363155,1.072652,10.936580,0.203718,0.088200,0.041496,-16.797153,0.449032,-39.826088,324.000000
368,-0.401482,1.163680,10.950953,0.203718,0.088200,0.041496,-16.797153,0.449032,-39.826088,324.000000
370,-0.401482,1.163680,10.950953,0.199457,0.102048,0.044159,-16.797153,0.449032,-39.826088,324.000000
370,-0.439810,1.245126,10.900647,0.199457,0.102048,0.044159,-16.797153,0.449032,-39.826088,324.000000
373,-0.456578,1.309804,10.807223,0.199457,0.102048,0.044159,-16.797153,0.449032,-39.826088,324.000000
375,-0.456578,1.309804,10.807223,0.193066,0.096189,0.040431,-16.797153,0.449032,-39.826088,324.000000
373,-0.456578,1.309804,10.807223,0.193066,0.096189,0.040431,-17.430695,0.464737,-39.181526,324.000000
375,-0.456578,1.333759,10.814410,0.193066,0.096189,0.040431,-17.430695,0.464737,-39.181526,324.000000
378,-0.470951,1.367295,10.711405,0.193066,0.096189,0.040431,-17.430695,0.464737,-39.181526,324.000000
380,-0.470951,1.367295,10.711405,0.182946,0.086069,0.035637,-17.430695,0.464737,-39.181526,324.000000
380,-0.564375,1.381668,10.651518,0.182946,0.086069,0.035637,-17.430695,0.464737,-39.181526,324.000000
383,-0.595516,1.302618,10.641935,0.182946,0.086069,0.035637,-17.430695,0.464737,-39.181526,324.000000
385,-0.595516,1.302618,10.641935,0.166434,0.072754,0.035104,-17.430695,0.464737,-39.181526,324.000000
383,-0.595516,1.302618,10.641935,0.166434,0.072754,0.035104,-18.074600,1.042183,-38.554756,324.000000
385,-0.645821,1.264290,10.589235,0.166434,0.072754,0.035104,-18.074600,1.042183,-38.554756,324.000000
388,-0.672171,1.163680,10.598818,0.166434,0.072754,0.035104,-18.074600,1.042183,-38.554756,324.000000
390,-0.672171,1.163680,10.598818,0.140868,0.051448,0.038833,-18.074600,1.042183,-38.554756,324.000000
390,-0.655403,1.065465,10.572467,0.140868,0.051448,0.038833,-18.074600,1.042183,-38.554756,324.000000
393,-0.729663,0.998392,10.589235,0.140868,0.051448,0.038833,-18.074600,1.042183,-38.554756,324.000000
395,-0.729663,0.998392,10.589235,0.103583,0.024817,0.045224,-18.074600,1.042183,-38.554756,324.000000
395,-0.775177,0.837895,10.553304,0.103583,0.024817,0.045224,-18.074600,1.042183,-38.554756,324.000000
393,-0.775177,0.837895,10.553304,0.103583,0.024817,0.045224,-17.426079,0.467010,-37.900810,324.000000
398,-0.722476,0.754053,10.625168,0.103583,0.024817,0.045224,-17.426079,0.467010,-37.900810,324.000000
400,-0.722476,0.754053,10.625168,0.056712,-0.003413,0.051083,-17.426079,0.467010,-37.900810,324.000000
400,-0.681753,0.720516,10.744942,0.056712,-0.003413,0.051083,-17.426079,0.467010,-37.900810,324.000000
403,-0.676962,0.718121,10.780873,0.056712,-0.003413,0.051083,-17.426079,0.467010,-37.900810,324.000000
403,-0.676962,0.718121,10.780873,0.056712,-0.003413,0.051083,-19.334805,-0.056671,-41.072151,324.000000
405,-0.691335,0.677398,10.843157,0.056712,-0.003413,0.051083,-19.334805,-0.056671,-41.072151,324.000000
405,-0.691335,0.677398,10.843157,0.001851,-0.025251,0.052149,-19.334805,-0.056671,-41.072151,324.000000
408,-0.636239,0.734889,10.989281,0.001851,-0.025251,0.052149,-19.334805,-0.056671,-41.072151,324.000000
410,-0.636239,0.734889,10.989281,-0.053010,-0.031110,0.043094,-19.334805,-0.056671,-41.072151,324.000000
410,-0.585934,0.742076,11.147382,-0.053010,-0.031110,0.043094,-19.334805,-0.056671,-41.072151,324.000000
413,-0.593121,0.761239,11.228828,-0.053010,-0.031110,0.043094,-19.334805,-0.056671,-41.072151,324.000000
415,-0.593121,0.761239,11.228828,-0.100947,-0.012468,0.027648,-19.334805,-0.056671,-41.072151,324.000000
413,-0.593121,0.761239,11.228828,-0.100947,-0.012468,0.027648,-17.401913,-1.221588,-39.768486,324.000000
415,-0.585934,0.778008,11.319857,-0.100947,-0.012468,0.027648,-17.401913,-1.221588,-39.768486,324.000000
418,-0.636239,0.794776,11.418071,-0.100947,-0.012468,0.027648,-17.401913,-1.221588,-39.768486,324.000000
420,-0.636239,0.794776,11.418071,-0.141960,0.022686,0.010071,-17.401913,-1.221588,-39.768486,324.000000
420,-0.691335,0.799567,11.473166,-0.141960,0.022686,0.010071,-17.401913,-1.221588,-39.768486,324.000000
423,-0.753618,0.804358,11.530659,-0.141960,0.022686,0.010071,-17.401913,-1.221588,-39.768486,324.000000
425,-0.753618,0.804358,11.530659,-0.175516,0.054644,-0.004310,-17.401913,-1.221588,-39.768486,324.000000
423,-0.753618,0.804358,11.530659,-0.175516,0.054644,-0.004310,-18.035454,-1.205879,-39.123917,324.000000
425,-0.842250,0.797172,11.525867,-0.175516,0.054644,-0.004310,-18.035454,-1.205879,-39.123917,324.000000
428,-0.902137,0.732494,11.518681,-0.175516,0.054644,-0.004310,-18.035454,-1.205879,-39.123917,324.000000
430,-0.902137,0.732494,11.518681,-0.204810,0.079678,-0.014430,-18.035454,-1.205879,-39.123917,324.000000
430,-0.952442,0.639070,11.504309,-0.204810,0.079678,-0.014430,-18.035454,-1.205879,-39.123917,324.000000
433,-0.964420,0.603138,11.554613,-0.204810,0.079678,-0.014430,-18.035454,-1.205879,-39.123917,324.000000
435,-0.964420,0.603138,11.554613,-0.223452,0.095657,-0.017626,-18.035454,-1.205879,-39.123917,324.000000
433,-0.964420,0.603138,11.554613,-0.223452,0.095657,-0.017626,-19.296795,-1.738461,-39.097702,324.000000
435,-0.962024,0.533669,11.533053,-0.223452,0.095657,-0.017626,-19.296795,-1.738461,-39.097702,324.000000
438,-1.026702,0.406709,11.580963,-0.223452,0.095657,-0.017626,-19.296795,-1.738461,-39.097702,324.000000
440,-1.007538,0.332449,11.592940,-0.223452,0.095657,-0.017626,-19.296795,-1.738461,-39.097702,324.000000
440,-1.007538,0.332449,11.592940,-0.230909,0.103114,-0.012300,-19.296795,-1.738461,-39.097702,324.000000
443,-1.019516,0.215070,11.590546,-0.230909,0.103114,-0.012300,-19.296795,-1.738461,-39.097702,324.000000
445,-1.019516,0.215070,11.590546,-0.230377,0.115364,-0.003778,-19.296795,-1.738461,-39.097702,324.000000
445,-0.976397,0.145601,11.552217,-0.230377,0.115364,-0.003778,-19.296795,-1.738461,-39.097702,324.000000
443,-0.976397,0.145601,11.552217,-0.230377,0.115364,-0.003778,-16.167046,0.998459,-38.567390,324.000000
448,-0.990770,0.059364,11.592940,-0.230377,0.115364,-0.003778,-16.167046,0.998459,-38.567390,324.000000
450,-0.993165,0.016246,11.612104,-0.230377,0.115364,-0.003778,-16.167046,0.998459,-38.567390,324.000000
453,-1.017120,-0.062805,11.523472,-0.230377,0.115364,-0.003778,-16.167046,0.998459,-38.567390,324.000000
450,-1.017120,-0.062805,11.523472,-0.220789,0.124951,0.006342,-16.167046,0.998459,-38.567390,324.000000
453,-1.017120,-0.062805,11.523472,-0.220789,0.124951,0.006342,-19.330193,-0.054401,-39.791443,324.000000
455,-1.017120,-0.062805,11.523472,-0.198419,0.134006,0.021256,-19.330193,-0.054401,-39.791443,324.000000
455,-1.062634,-0.101133,11.533053,-0.198419,0.134006,0.021256,-19.330193,-0.054401,-39.791443,324.000000
458,-0.983584,-0.194557,11.456398,-0.198419,0.134006,0.021256,-19.330193,-0.054401,-39.791443,324.000000
460,-0.983584,-0.194557,11.456398,-0.167526,0.143061,0.035637,-19.330193,-0.054401,-39.791443,324.000000
460,-1.041075,-0.254444,11.439631,-0.167526,0.143061,0.035637,-19.330193,-0.054401,-39.791443,324.000000
463,-1.086589,-0.328703,11.401302,-0.167526,0.143061,0.035637,-19.330193,-0.054401,-39.791443,324.000000
465,-1.086589,-0.328703,11.401302,-0.126513,0.149985,0.046290,-19.330193,-0.054401,-39.791443,324.000000
465,-1.108148,-0.374217,11.367765,-0.126513,0.149985,0.046290,-19.330193,-0.054401,-39.791443,324.000000
463,-1.108148,-0.374217,11.367765,-0.126513,0.149985,0.046290,-16.789093,-0.113834,-40.448647,324.000000
468,-1.045866,-0.410150,11.257573,-0.126513,0.149985,0.046290,-16.789093,-0.113834,-40.448647,324.000000
470,-1.045866,-0.410150,11.257573,-0.076979,0.147322,0.056410,-16.789093,-0.113834,-40.448647,324.000000
470,-1.194386,-0.426918,11.226433,-0.076979,0.147322,0.056410,-16.789093,-0.113834,-40.448647,324.000000
473,-1.211154,-0.467641,11.231223,-0.076979,0.147322,0.056410,-16.789093,-0.113834,-40.448647,324.000000
473,-1.211154,-0.467641,11.231223,-0.076979,0.147322,0.056410,-16.154373,0.437862,-37.909233,324.000000
475,-1.211154,-0.467641,11.231223,-0.027977,0.137202,0.065464,-16.154373,0.437862,-37.909233,324.000000
475,-1.194386,-0.462850,11.269551,-0.027977,0.137202,0.065464,-16.154373,0.437862,-37.909233,324.000000
478,-1.182408,-0.455664,11.154569,-0.027977,0.137202,0.065464,-16.154373,0.437862,-37.909233,324.000000
480,-1.182408,-0.455664,11.154569,0.022091,0.140398,0.072389,-16.154373,0.437862,-37.909233,324.000000
480,-1.148872,-0.474828,11.147382,0.022091,0.140398,0.072389,-16.154373,0.437862,-37.909233,324.000000
483,-1.158453,-0.477223,11.092285,0.022091,0.140398,0.072389,-16.154373,0.437862,-37.909233,324.000000
483,-1.158453,-0.477223,11.092285,0.022091,0.140398,0.072389,-16.148628,-0.126141,-39.172150,324.000000
485,-1.158453,-0.477223,11.092285,0.073223,0.160105,0.075584,-16.148628,-0.126141,-39.172150,324.000000
485,-1.132103,-0.422127,11.015631,0.073223,0.160105,0.075584,-16.148628,-0.126141,-39.172150,324.000000
488,-1.108148,-0.441291,10.876693,0.073223,0.160105,0.075584,-16.148628,-0.126141,-39.172150,324.000000
490,-1.108148,-0.441291,10.876693,0.122758,0.189933,0.077715,-16.148628,-0.126141,-39.172150,324.000000
490,-1.086589,-0.482014,10.723382,0.122758,0.189933,0.077715,-16.148628,-0.126141,-39.172150,324.000000
493,-1.072216,-0.522737,10.615585,0.122758,0.189933,0.077715,-16.148628,-0.126141,-39.172150,324.000000
495,-1.072216,-0.522737,10.615585,0.169097,0.222423,0.077182,-16.148628,-0.126141,-39.172150,324.000000
493,-1.072216,-0.522737,10.615585,0.169097,0.222423,0.077182,-17.436478,-0.104939,-43.646217,324.000000
495,-1.048262,-0.520342,10.531743,0.169097,0.222423,0.077182,-17.436478,-0.104939,-43.646217,324.000000
497,-1.074612,-0.515551,10.395202,0.169097,0.222423,0.077182,-17.436478,-0.104939,-43.646217,324.000000
500,-1.074612,-0.515551,10.395202,0.218099,0.243196,0.077182,-17.436478,-0.104939,-43.646217,324.000000
500,-1.088985,-0.493991,10.222728,0.218099,0.243196,0.077182,-17.436478,-0.104939,-43.646217,324.000000
503,-1.055448,-0.479619,10.067020,0.218099,0.243196,0.077182,-17.436478,-0.104939,-43.646217,324.000000
505,-1.055448,-0.479619,10.067020,0.266036,0.249587,0.077715,-17.436478,-0.104939,-43.646217,324.000000
505,-1.041075,-0.410150,9.870591,0.266036,0.249587,0.077715,-17.436478,-0.104939,-43.646217,324.000000
503,-1.041075,-0.410150,9.870591,0.266036,0.249587,0.077715,-16.802898,1.013035,-38.563179,324.000000
508,-1.117730,-0.402963,9.746026,0.266036,0.249587,0.077715,-16.802898,1.013035,-38.563179,324.000000
510,-1.117730,-0.402963,9.746026,0.311843,0.239467,0.079845,-16.802898,1.013035,-38.563179,324.000000
510,-1.108148,-0.393381,9.568762,0.311843,0.239467,0.079845,-16.802898,1.013035,-38.563179,324.000000
513,-1.112939,-0.323912,9.429824,0.311843,0.239467,0.079845,-16.802898,1.013035,-38.563179,324.000000
515,-1.112939,-0.323912,9.429824,0.357649,0.221358,0.083041,-16.802898,1.013035,-38.563179,324.000000
513,-1.112939,-0.323912,9.429824,0.357649,0.221358,0.083041,-18.068851,0.478180,-39.817665,324.000000
515,-1.134499,-0.271212,9.252559,0.357649,0.221358,0.083041,-18.068851,0.478180,-39.817665,324.000000
518,-1.129708,-0.206534,9.113621,0.357649,0.221358,0.083041,-18.068851,0.478180,-39.817665,324.000000
520,-1.129708,-0.206534,9.113621,0.402923,0.201118,0.087302,-18.068851,0.478180,-39.817665,324.000000
520,-1.120126,-0.127483,8.977078,0.402923,0.201118,0.087302,-18.068851,0.478180,-39.817665,324.000000
523,-1.170431,-0.120297,8.864491,0.402923,0.201118,0.087302,-18.068851,0.478180,-39.817665,324.000000
525,-1.170431,-0.120297,8.864491,0.441272,0.184606,0.094759,-18.068851,0.478180,-39.817665,324.000000
525,-1.153663,-0.055619,8.593801,0.441272,0.184606,0.094759,-18.068851,0.478180,-39.817665,324.000000
523,-1.153663,-0.055619,8.593801,0.441272,0.184606,0.094759,-16.148628,-0.126141,-39.172150,324.000000
527,-1.117730,0.013850,8.486006,0.441272,0.184606,0.094759,-16.148628,-0.126141,-39.172150,324.000000
530,-1.117730,0.013850,8.486006,0.475360,0.170225,0.101683,-16.148628,-0.126141,-39.172150,324.000000
530,-1.136894,0.100087,8.318321,0.475360,0.170225,0.101683,-16.148628,-0.126141,-39.172150,324.000000
533,-1.134499,0.217466,8.119497,0.475360,0.170225,0.101683,-16.148628,-0.126141,-39.172150,324.000000
535,-1.134499,0.217466,8.119497,0.499329,0.152116,0.105412,-16.148628,-0.126141,-39.172150,324.000000
535,-1.148872,0.270166,8.006909,0.499329,0.152116,0.105412,-16.148628,-0.126141,-39.172150,324.000000
533,-1.148872,0.270166,8.006909,0.499329,0.152116,0.105412,-17.378880,-2.343918,-39.092537,324.000000
538,-1.148872,0.286935,7.913486,0.499329,0.152116,0.105412,-17.378880,-2.343918,-39.092537,324.000000
540,-1.148872,0.286935,7.913486,0.513177,0.139865,0.108075,-17.378880,-2.343918,-39.092537,324.000000
540,-1.177617,0.380358,7.769756,0.513177,0.139865,0.108075,-17.378880,-2.343918,-39.092537,324.000000
543,-1.239900,0.440245,7.638005,0.513177,0.139865,0.108075,-17.378880,-2.343918,-39.092537,324.000000
545,-1.239900,0.440245,7.638005,0.520101,0.130278,0.109673,-17.378880,-2.343918,-39.092537,324.000000
543,-1.239900,0.440245,7.638005,0.520101,0.130278,0.109673,-16.755699,-1.797890,-39.754898,324.000000
545,-1.292600,0.495341,7.537395,0.520101,0.130278,0.109673,-16.755699,-1.797890,-39.754898,324.000000
548,-1.256668,0.536064,7.467927,0.520101,0.130278,0.109673,-16.755699,-1.797890,-39.754898,324.000000
550,-1.256668,0.536064,7.467927,0.507851,0.115897,0.116597,-16.755699,-1.797890,-39.754898,324.000000
550,-1.309369,0.555228,7.314615,0.507851,0.115897,0.116597,-16.755699,-1.797890,-39.754898,324.000000
552,-1.326137,0.617511,7.245147,0.507851,0.115897,0.116597,-16.755699,-1.797890,-39.754898,324.000000
553,-1.326137,0.617511,7.245147,0.507851,0.115897,0.116597,-16.122150,-1.813602,-40.399467,324.000000
555,-1.273436,0.643861,7.154119,0.507851,0.115897,0.116597,-16.122150,-1.813602,-40.399467,324.000000
557,-1.287809,0.658234,7.197237,0.507851,0.115897,0.116597,-16.122150,-1.813602,-40.399467,324.000000
555,-1.287809,0.658234,7.197237,0.480687,0.086602,0.121391,-16.122150,-1.813602,-40.399467,324.000000
560,-1.287809,0.658234,7.197237,0.438076,0.055177,0.125119,-16.122150,-1.813602,-40.399467,324.000000
560,-1.218341,0.722912,7.156514,0.438076,0.055177,0.125119,-16.122150,-1.813602,-40.399467,324.000000
563,-1.189595,0.725307,7.075068,0.438076,0.055177,0.125119,-16.122150,-1.813602,-40.399467,324.000000
565,-1.189595,0.725307,7.075068,0.379487,0.027480,0.119793,-16.122150,-1.813602,-40.399467,324.000000
565,-1.201572,0.720516,7.166096,0.379487,0.027480,0.119793,-16.122150,-1.813602,-40.399467,324.000000
563,-1.201572,0.720516,7.166096,0.379487,0.027480,0.119793,-17.401913,-1.221588,-39.768486,324.000000
568,-1.199177,0.742076,7.173283,0.379487,0.027480,0.119793,-17.401913,-1.221588,-39.768486,324.000000
570,-1.199177,0.742076,7.173283,0.313973,0.013631,0.107010,-17.401913,-1.221588,-39.768486,324.000000
570,-1.208759,0.775612,7.225983,0.313973,0.013631,0.107010,-17.401913,-1.221588,-39.768486,324.000000
573,-1.263855,0.823522,7.333779,0.313973,0.013631,0.107010,-17.401913,-1.221588,-39.768486,324.000000
575,-1.263855,0.823522,7.333779,0.244731,0.009370,0.094227,-17.401913,-1.221588,-39.768486,324.000000
573,-1.263855,0.823522,7.333779,0.244731,0.009370,0.094227,-17.433002,0.463604,-39.821877,324.000000
575,-1.299787,0.766030,7.400853,0.244731,0.009370,0.094227,-17.433002,0.463604,-39.821877,324.000000
577,-1.388419,0.751657,7.523023,0.244731,0.009370,0.094227,-17.433002,0.463604,-39.821877,324.000000
580,-1.421956,0.799567,7.587700,0.244731,0.009370,0.094227,-17.433002,0.463604,-39.821877,324.000000
580,-1.421956,0.799567,7.587700,0.173891,0.008838,0.080911,-17.433002,0.463604,-39.821877,324.000000
582,-1.445911,0.792381,7.638005,0.173891,0.008838,0.080911,-17.433002,0.463604,-39.821877,324.000000
583,-1.445911,0.792381,7.638005,0.173891,0.008838,0.080911,-16.163601,0.433319,-40.470657,324.000000
585,-1.445911,0.792381,7.638005,0.106779,0.014164,0.070791,-16.163601,0.433319,-40.470657,324.000000
585,-1.472261,0.773217,7.786525,0.106779,0.014164,0.070791,-16.163601,0.433319,-40.470657,324.000000
587,-1.568080,0.763635,7.858389,0.106779,0.014164,0.070791,-16.163601,0.433319,-40.470657,324.000000
590,-1.572871,0.734889,8.016492,0.106779,0.014164,0.070791,-16.163601,0.433319,-40.470657,324.000000
590,-1.572871,0.734889,8.016492,0.043929,0.020023,0.066530,-16.163601,0.433319,-40.470657,324.000000
593,-1.613594,0.684584,8.141056,0.043929,0.020023,0.066530,-16.163601,0.433319,-40.470657,324.000000
593,-1.613594,0.684584,8.141056,0.043929,0.020023,0.066530,-16.782173,-0.110428,-38.527580,324.000000
595,-1.563289,0.660629,8.404558,0.043929,0.020023,0.066530,-16.782173,-0.110428,-38.527580,324.000000
595,-1.563289,0.660629,8.404558,-0.016259,0.029610,0.065464,-16.782173,-0.110428,-38.527580,324.000000
598,-1.505798,0.677398,8.581824,-0.016259,0.029610,0.065464,-16.782173,-0.110428,-38.527580,324.000000
600,-1.505798,0.677398,8.581824,-0.066859,0.048253,0.067062,-16.782173,-0.110428,-38.527580,324.000000
600,-1.414770,0.643861,8.703994,-0.066859,0.048253,0.067062,-16.782173,-0.110428,-38.527580,324.000000
603,-1.419561,0.612720,8.804604,-0.066859,0.048253,0.067062,-16.782173,-0.110428,-38.527580,324.000000
605,-1.419561,0.612720,8.804604,-0.105741,0.072754,0.067595,-16.782173,-0.110428,-38.527580,324.000000
603,-1.419561,0.612720,8.804604,-0.105741,0.072754,0.067595,-16.119846,-1.812466,-39.759109,324.000000
605,-1.402792,0.564810,8.955519,-0.105741,0.072754,0.067595,-16.119846,-1.812466,-39.759109,324.000000
607,-1.364465,0.492946,9.072897,-0.105741,0.072754,0.067595,-16.119846,-1.812466,-39.759109,324.000000
610,-1.364465,0.492946,9.072897,-0.132372,0.097787,0.066530,-16.119846,-1.812466,-39.759109,324.000000
610,-1.342905,0.466595,9.068107,-0.132372,0.097787,0.066530,-16.119846,-1.812466,-39.759109,324.000000
612,-1.316555,0.375567,9.149552,-0.132372,0.097787,0.066530,-16.119846,-1.812466,-39.759109,324.000000
615,-1.316555,0.375567,9.149552,-0.148351,0.115897,0.063867,-16.119846,-1.812466,-39.759109,324.000000
615,-1.347696,0.303703,9.149552,-0.148351,0.115897,0.063867,-16.119846,-1.812466,-39.759109,324.000000
613,-1.347696,0.303703,9.149552,-0.148351,0.115897,0.063867,-17.381187,-2.345051,-39.732887,324.000000
617,-1.316555,0.284539,9.192672,-0.148351,0.115897,0.063867,-17.381187,-2.345051,-39.732887,324.000000
620,-1.316555,0.284539,9.192672,-0.163798,0.118560,0.064932,-17.381187,-2.345051,-39.732887,324.000000
620,-1.273436,0.262980,9.166322,-0.163798,0.118560,0.064932,-17.381187,-2.345051,-39.732887,324.000000
623,-1.275832,0.224652,9.180694,-0.163798,0.118560,0.064932,-17.381187,-2.345051,-39.732887,324.000000
625,-1.275832,0.224652,9.180694,-0.180309,0.116429,0.063867,-17.381187,-2.345051,-39.732887,324.000000
623,-1.275832,0.224652,9.180694,-0.180309,0.116429,0.063867,-15.489742,-1.263042,-38.500412,324.000000
625,-1.266250,0.193511,9.192672,-0.180309,0.116429,0.063867,-15.489742,-1.263042,-38.500412,324.000000
628,-1.237504,0.145601,9.298073,-0.180309,0.116429,0.063867,-15.489742,-1.263042,-38.500412,324.000000
630,-1.230318,0.128833,9.355563,-0.180309,0.116429,0.063867,-15.489742,-1.263042,-38.500412,324.000000
630,-1.230318,0.128833,9.355563,-0.193092,0.115897,0.060671,-15.489742,-1.263042,-38.500412,324.000000
632,-1.211154,0.102483,9.307654,-0.193092,0.115897,0.060671,-15.489742,-1.263042,-38.500412,324.000000
635,-1.211154,0.102483,9.307654,-0.208539,0.106309,0.056942,-15.489742,-1.263042,-38.500412,324.000000
633,-1.211154,0.102483,9.307654,-0.208539,0.106309,0.056942,-16.766064,-1.236160,-39.772697,324.000000
635,-1.189595,0.068946,9.336400,-0.208539,0.106309,0.056942,-16.766064,-1.236160,-39.772697,324.000000
637,-1.168035,0.025827,9.386705,-0.208539,0.106309,0.056942,-16.766064,-1.236160,-39.772697,324.000000
640,-1.168035,0.025827,9.386705,-0.223985,0.077547,0.045757,-16.766064,-1.236160,-39.772697,324.000000
640,-1.115335,0.016246,9.391497,-0.223985,0.077547,0.045757,-16.766064,-1.236160,-39.772697,324.000000
642,-1.067425,0.047387,9.441801,-0.223985,0.077547,0.045757,-16.766064,-1.236160,-39.772697,324.000000
645,-1.067425,0.047387,9.441801,-0.236236,0.030676,0.024452,-16.766064,-1.236160,-39.772697,324.000000
643,-1.067425,0.047387,9.441801,-0.236236,0.030676,0.024452,-17.420330,-0.096992,-39.163727,324.000000
645,-1.048262,0.021036,9.472942,-0.236236,0.030676,0.024452,-17.420330,-0.096992,-39.163727,324.000000
647,-1.072216,0.009059,9.480128,-0.236236,0.030676,0.024452,-17.420330,-0.096992,-39.163727,324.000000
650,-1.072216,0.009059,9.480128,-0.250084,-0.024718,0.003679,-17.420330,-0.096992,-39.163727,324.000000
650,-1.079403,-0.002918,9.499292,-0.250084,-0.024718,0.003679,-17.420330,-0.096992,-39.163727,324.000000
653,-1.105753,0.009059,9.499292,-0.250084,-0.024718,0.003679,-17.420330,-0.096992,-39.163727,324.000000
653,-1.105753,0.009059,9.499292,-0.250084,-0.024718,0.003679,-16.786789,-0.112698,-39.808289,324.000000
655,-1.105753,0.009059,9.499292,-0.264465,-0.075851,-0.023485,-16.786789,-0.112698,-39.808289,324.000000
655,-1.165640,-0.031664,9.540015,-0.264465,-0.075851,-0.023485,-16.786789,-0.112698,-39.808289,324.000000
658,-1.081798,-0.029269,9.645416,-0.264465,-0.075851,-0.023485,-16.786789,-0.112698,-39.808289,324.000000
660,-1.081798,-0.029269,9.645416,-0.269259,-0.110472,-0.044790,-16.786789,-0.112698,-39.808289,324.000000
660,-1.079403,-0.093946,9.678953,-0.269259,-0.110472,-0.044790,-16.786789,-0.112698,-39.808289,324.000000
662,-1.045866,-0.110715,9.693326,-0.269259,-0.110472,-0.044790,-16.786789,-0.112698,-39.808289,324.000000
665,-1.045866,-0.110715,9.693326,-0.260737,-0.132842,-0.061302,-16.786789,-0.112698,-39.808289,324.000000
663,-1.045866,-0.110715,9.693326,-0.260737,-0.132842,-0.061302,-15.488605,-1.829311,-41.044029,324.000000
665,-1.041075,-0.105924,9.683744,-0.260737,-0.132842,-0.061302,-15.488605,-1.829311,-41.044029,324.000000
667,-1.009934,-0.096342,9.674163,-0.260737,-0.132842,-0.061302,-15.488605,-1.829311,-41.044029,324.000000
670,-1.009934,-0.096342,9.674163,-0.239964,-0.147756,-0.076216,-15.488605,-1.829311,-41.044029,324.000000
670,-1.012329,-0.065201,9.729259,-0.239964,-0.147756,-0.076216,-15.488605,-1.829311,-41.044029,324.000000
672,-0.974002,-0.014896,9.698117,-0.239964,-0.147756,-0.076216,-15.488605,-1.829311,-41.044029,324.000000
675,-0.974002,-0.014896,9.698117,-0.206941,-0.163735,-0.089531,-15.488605,-1.829311,-41.044029,324.000000
675,-1.021911,0.047387,9.602299,-0.206941,-0.163735,-0.089531,-15.488605,-1.829311,-41.044029,324.000000
673,-1.021911,0.047387,9.602299,-0.206941,-0.163735,-0.089531,-16.763756,-1.235027,-39.132339,324.000000
677,-1.077007,0.104878,9.575948,-0.206941,-0.163735,-0.089531,-16.763756,-1.235027,-39.132339,324.000000
680,-1.077007,0.104878,9.575948,-0.161667,-0.167996,-0.096456,-16.763756,-1.235027,-39.132339,324.000000
680,-1.172826,0.171952,9.516061,-0.161667,-0.167996,-0.096456,-16.763756,-1.235027,-39.132339,324.000000
683,-1.187199,0.229443,9.496898,-0.161667,-0.167996,-0.096456,-16.763756,-1.235027,-39.132339,324.000000
685,-1.187199,0.229443,9.496898,-0.108404,-0.166398,-0.091129,-16.763756,-1.235027,-39.132339,324.000000
685,-1.211154,0.291726,9.422637,-0.108404,-0.166398,-0.091129,-16.763756,-1.235027,-39.132339,324.000000
683,-1.211154,0.291726,9.422637,-0.108404,-0.166398,-0.091129,-16.784481,-0.111565,-39.167938,324.000000
687,-1.182408,0.377963,9.345982,-0.108404,-0.166398,-0.091129,-16.784481,-0.111565,-39.167938,324.000000
690,-1.235109,0.430663,9.254953,-0.108404,-0.166398,-0.091129,-16.784481,-0.111565,-39.167938,324.000000
690,-1.235109,0.430663,9.254953,-0.056739,-0.164268,-0.074085,-16.784481,-0.111565,-39.167938,324.000000
692,-1.194386,0.492946,9.163925,-0.056739,-0.164268,-0.074085,-16.784481,-0.111565,-39.167938,324.000000
695,-1.194386,0.492946,9.163925,-0.006139,-0.161072,-0.045856,-16.784481,-0.111565,-39.167938,324.000000
693,-1.194386,0.492946,9.163925,-0.006139,-0.161072,-0.045856,-16.766064,-1.236160,-39.772697,324.000000
695,-1.156058,0.543251,9.092061,-0.006139,-0.161072,-0.045856,-16.766064,-1.236160,-39.772697,324.000000
697,-1.160849,0.667816,9.010614,-0.006139,-0.161072,-0.045856,-16.766064,-1.236160,-39.772697,324.000000
700,-1.160849,0.667816,9.010614,0.040733,-0.147223,-0.014430,-16.766064,-1.236160,-39.772697,324.000000
700,-1.151267,0.722912,8.931564,0.040733,-0.147223,-0.014430,-16.766064,-1.236160,-39.772697,324.000000
702,-1.182408,0.778008,8.818976,0.040733,-0.147223,-0.014430,-16.766064,-1.236160,-39.772697,324.000000
705,-1.182408,0.778008,8.818976,0.084409,-0.126983,0.021789,-16.766064,-1.236160,-39.772697,324.000000
705,-1.120126,0.792381,8.735134,0.084409,-0.126983,0.021789,-16.766064,-1.236160,-39.772697,324.000000
703,-1.120126,0.792381,8.735134,0.084409,-0.126983,0.021789,-16.789093,-0.113834,-40.448647,324.000000
707,-1.129708,0.794776,8.639316,0.084409,-0.126983,0.021789,-16.789093,-0.113834,-40.448647,324.000000
710,-1.129708,0.794776,8.639316,0.122758,-0.103015,0.058008,-16.789093,-0.113834,-40.448647,324.000000
710,-1.091380,0.881013,8.509959,0.122758,-0.103015,0.058008,-16.789093,-0.113834,-40.448647,324.000000
712,-1.062634,0.904968,8.303949,0.122758,-0.103015,0.058008,-16.789093,-0.113834,-40.448647,324.000000
715,-1.062634,0.904968,8.303949,0.147259,-0.081177,0.089433,-16.789093,-0.113834,-40.448647,324.000000
713,-1.062634,0.904968,8.303949,0.147259,-0.081177,0.089433,-16.119846,-1.812466,-39.759109,324.000000
715,-1.029098,0.952878,8.234480,0.147259,-0.081177,0.089433,-16.119846,-1.812466,-39.759109,324.000000
717,-0.969211,0.933714,8.083565,0.147259,-0.081177,0.089433,-16.119846,-1.812466,-39.759109,324.000000
720,-0.969211,0.933714,8.083565,0.148325,-0.067329,0.104347,-16.119846,-1.812466,-39.759109,324.000000
720,-1.017120,0.957669,7.927858,0.148325,-0.067329,0.104347,-16.119846,-1.812466,-39.759109,324.000000
722,-0.990770,1.007974,7.805689,0.148325,-0.067329,0.104347,-16.119846,-1.812466,-39.759109,324.000000
725,-0.990770,1.007974,7.805689,0.130215,-0.050284,0.104879,-16.119846,-1.812466,-39.759109,324.000000
723,-0.990770,1.007974,7.805689,0.130215,-0.050284,0.104879,-15.520832,0.422150,-38.553802,324.000000
725,-1.000352,1.072652,7.752988,0.130215,-0.050284,0.104879,-15.520832,0.422150,-38.553802,324.000000
727,-1.069821,1.091815,7.685915,0.130215,-0.050284,0.104879,-15.520832,0.422150,-38.553802,324.000000
730,-1.069821,1.091815,7.685915,0.090800,-0.036969,0.096357,-15.520832,0.422150,-38.553802,324.000000
730,-1.158453,1.110979,7.638005,0.090800,-0.036969,0.096357,-15.520832,0.422150,-38.553802,324.000000
732,-1.141685,1.194821,7.645192,0.090800,-0.036969,0.096357,-15.520832,0.422150,-38.553802,324.000000
735,-1.141685,1.194821,7.645192,0.031146,-0.030577,0.086770,-15.520832,0.422150,-38.553802,324.000000
733,-1.141685,1.194821,7.645192,0.031146,-0.030577,0.086770,-17.422638,-0.098125,-39.804077,324.000000
735,-1.491425,1.307408,7.647587,0.031146,-0.030577,0.086770,-17.422638,-0.098125,-39.804077,324.000000
737,-1.958543,1.475092,7.810480,0.031146,-0.030577,0.086770,-17.422638,-0.098125,-39.804077,324.000000
740,-1.958543,1.475092,7.810480,-0.029042,-0.024185,0.097422,-17.422638,-0.098125,-39.804077,324.000000
740,-1.577662,1.664335,7.669147,-0.029042,-0.024185,0.097422,-17.422638,-0.098125,-39.804077,324.000000
742,-1.304578,1.726617,7.580514,-0.029042,-0.024185,0.097422,-17.422638,-0.098125,-39.804077,324.000000
745,-1.304578,1.726617,7.580514,-0.089229,-0.021522,0.137370,-17.422638,-0.098125,-39.804077,324.000000
743,-1.304578,1.726617,7.580514,-0.089229,-0.021522,0.137370,-16.763756,-1.235027,-39.132339,324.000000
745,-1.199177,1.614030,7.623632,-0.089229,-0.021522,0.137370,-16.763756,-1.235027,-39.132339,324.000000
747,-1.120126,1.408018,7.609260,-0.089229,-0.021522,0.137370,-16.763756,-1.235027,-39.132339,324.000000
750,-1.120126,1.408018,7.609260,-0.148884,-0.030044,0.161338,-16.763756,-1.235027,-39.132339,324.000000
750,-0.964420,1.161284,7.721847,-0.148884,-0.030044,0.161338,-16.763756,-1.235027,-39.132339,324.000000
752,-0.839855,0.940900,7.832039,-0.148884,-0.030044,0.161338,-16.763756,-1.235027,-39.132339,324.000000
755,-0.839855,0.940900,7.832039,-0.193625,-0.026849,0.151751,-16.763756,-1.235027,-39.132339,324.000000
755,-0.751222,0.794776,7.925462,-0.193625,-0.026849,0.151751,-16.763756,-1.235027,-39.132339,324.000000
753,-0.751222,0.794776,7.925462,-0.193625,-0.026849,0.151751,-16.763756,-1.235027,-39.132339,324.000000
757,-0.648217,0.708539,7.896717,-0.193625,-0.026849,0.151751,-16.763756,-1.235027,-39.132339,324.000000
760,-0.648217,0.708539,7.896717,-0.217593,-0.028446,0.104347,-16.763756,-1.235027,-39.132339,324.000000
760,-0.600307,0.670211,7.975768,-0.217593,-0.028446,0.104347,-16.763756,-1.235027,-39.132339,324.000000
762,-0.566770,0.739680,8.042841,-0.217593,-0.028446,0.104347,-16.763756,-1.235027,-39.132339,324.000000
765,-0.566770,0.739680,8.042841,-0.226648,-0.050284,0.035104,-16.763756,-1.235027,-39.132339,324.000000
763,-0.566770,0.739680,8.042841,-0.226648,-0.050284,0.035104,-16.763756,-1.235027,-39.132339,324.000000
765,-0.609889,0.782799,8.095542,-0.226648,-0.050284,0.035104,-16.763756,-1.235027,-39.132339,324.000000
767,-0.643426,0.902573,8.155429,-0.226648,-0.050284,0.035104,-16.763756,-1.235027,-39.132339,324.000000
770,-0.643426,0.902573,8.155429,-0.230377,-0.072122,-0.037866,-16.763756,-1.235027,-39.132339,324.000000
770,-0.909324,0.972041,8.251248,-0.230377,-0.072122,-0.037866,-16.763756,-1.235027,-39.132339,324.000000
772,-1.110544,1.079838,8.256039,-0.230377,-0.072122,-0.037866,-16.763756,-1.235027,-39.132339,324.000000
775,-1.110544,1.079838,8.256039,-0.222387,-0.087036,-0.084738,-16.763756,-1.235027,-39.132339,324.000000
773,-1.110544,1.079838,8.256039,-0.222387,-0.087036,-0.084738,-16.792538,0.451302,-38.545380,324.000000
775,-1.283018,1.202007,8.287181,-0.222387,-0.087036,-0.084738,-16.792538,0.451302,-38.545380,324.000000
777,-1.460284,1.276267,8.287181,-0.222387,-0.087036,-0.084738,-16.792538,0.451302,-38.545380,324.000000
780,-1.575267,1.302618,8.356649,-0.222387,-0.087036,-0.084738,-16.792538,0.451302,-38.545380,324.000000
780,-1.575267,1.302618,8.356649,-0.215996,-0.093960,-0.095390,-16.792538,0.451302,-38.545380,324.000000
782,-1.608804,1.242730,8.349463,-0.215996,-0.093960,-0.095390,-16.792538,0.451302,-38.545380,324.000000
785,-1.608804,1.242730,8.349463,-0.214930,-0.095025,-0.075683,-16.792538,0.451302,-38.545380,324.000000
785,-1.575267,1.192425,8.347068,-0.214930,-0.095025,-0.075683,-16.792538,0.451302,-38.545380,324.000000
783,-1.575267,1.192425,8.347068,-0.214930,-0.095025,-0.075683,-16.786789,-0.112698,-39.808289,324.000000
787,-1.568080,1.144516,8.397372,-0.214930,-0.095025,-0.075683,-16.786789,-0.112698,-39.808289,324.000000
790,-1.453097,1.053488,8.469236,-0.214930,-0.095025,-0.075683,-16.786789,-0.112698,-39.808289,324.000000
790,-1.453097,1.053488,8.469236,-0.209604,-0.095025,-0.038931,-16.786789,-0.112698,-39.808289,324.000000
792,-1.388419,1.036719,8.457259,-0.209604,-0.095025,-0.038931,-16.786789,-0.112698,-39.808289,324.000000
795,-1.388419,1.036719,8.457259,-0.200017,-0.090764,-0.005376,-16.786789,-0.112698,-39.808289,324.000000
795,-1.338114,0.988810,8.466842,-0.200017,-0.090764,-0.005376,-16.786789,-0.112698,-39.808289,324.000000
797,-1.290205,0.938505,8.536310,-0.200017,-0.090764,-0.005376,-16.786789,-0.112698,-39.808289,324.000000
793,-1.290205,0.938505,8.536310,-0.200017,-0.090764,-0.005376,-18.037762,-1.207012,-39.764275,324.000000
800,-1.290205,0.960064,8.574637,-0.200017,-0.090764,-0.005376,-18.037762,-1.207012,-39.764275,324.000000
800,-1.290205,0.960064,8.574637,-0.188299,-0.090764,0.021256,-18.037762,-1.207012,-39.764275,324.000000
802,-1.280623,1.003183,8.629733,-0.188299,-0.090764,0.021256,-18.037762,-1.207012,-39.764275,324.000000
805,-1.280623,1.003183,8.629733,-0.172852,-0.096623,0.046290,-18.037762,-1.207012,-39.764275,324.000000
805,-1.271041,0.976832,8.682434,-0.172852,-0.096623,0.046290,-18.037762,-1.207012,-39.764275,324.000000
807,-1.326137,1.000787,8.804604,-0.172852,-0.096623,0.046290,-18.037762,-1.207012,-39.764275,324.000000
803,-1.326137,1.000787,8.804604,-0.172852,-0.096623,0.046290,-16.163601,0.433319,-40.470657,324.000000
810,-1.326137,1.000787,8.804604,-0.155808,-0.108341,0.067062,-16.163601,0.433319,-40.470657,324.000000
810,-1.285414,1.060674,8.898027,-0.155808,-0.108341,0.067062,-16.163601,0.433319,-40.470657,324.000000
812,-1.299787,1.019951,8.977078,-0.155808,-0.108341,0.067062,-16.163601,0.433319,-40.470657,324.000000
815,-1.299787,1.019951,8.977078,-0.141960,-0.116331,0.086237,-16.163601,0.433319,-40.470657,324.000000
813,-1.299787,1.019951,8.977078,-0.141960,-0.116331,0.086237,-16.101421,-2.937065,-40.363869,324.000000
815,-1.357278,1.022346,9.051338,-0.141960,-0.116331,0.086237,-16.101421,-2.937065,-40.363869,324.000000
817,-1.357278,1.048697,9.183089,-0.141960,-0.116331,0.086237,-16.101421,-2.937065,-40.363869,324.000000
818,-1.357278,1.048697,9.183089,-0.141960,-0.116331,0.086237,-16.101421,-2.937065,-40.363869,291.000000
820,-1.376442,1.075047,9.252559,-0.141960,-0.116331,0.086237,-16.101421,-2.937065,-40.363869,291.000000
820,-1.376442,1.075047,9.252559,-0.130242,-0.116863,0.104879,-16.101421,-2.937065,-40.363869,291.000000
822,-1.402792,1.048697,9.302863,-0.130242,-0.116863,0.104879,-16.101421,-2.937065,-40.363869,291.000000
825,-1.402792,1.048697,9.302863,-0.117459,-0.118461,0.123521,-16.101421,-2.937065,-40.363869,291.000000
823,-1.402792,1.048697,9.302863,-0.117459,-0.118461,0.123521,-17.391548,-1.783318,-39.750687,291.000000
825,-1.338114,1.031928,9.367541,-0.117459,-0.118461,0.123521,-17.391548,-1.783318,-39.750687,291.000000
827,-1.263855,1.096606,9.480128,-0.117459,-0.118461,0.123521,-17.391548,-1.783318,-39.750687,291.000000
830,-1.263855,1.096606,9.480128,-0.100947,-0.110472,0.134174,-17.391548,-1.783318,-39.750687,291.000000
830,-1.235109,1.077443,9.540015,-0.100947,-0.110472,0.134174,-17.391548,-1.783318,-39.750687,291.000000
832,-1.225527,1.106188,9.494501,-0.100947,-0.110472,0.134174,-17.391548,-1.783318,-39.750687,291.000000
835,-1.225527,1.106188,9.494501,-0.082838,-0.093428,0.136837,-17.391548,-1.783318,-39.750687,291.000000
835,-1.230318,1.110979,9.530434,-0.082838,-0.093428,0.136837,-17.391548,-1.783318,-39.750687,291.000000
833,-1.230318,1.110979,9.530434,-0.082838,-0.093428,0.136837,-17.420330,-0.096992,-39.163727,291.000000
837,-1.268646,1.139725,9.530434,-0.082838,-0.093428,0.136837,-17.420330,-0.096992,-39.163727,291.000000
840,-1.268646,1.139725,9.530434,-0.071120,-0.072655,0.134174,-17.420330,-0.096992,-39.163727,291.000000
840,-1.213549,1.161284,9.472942,-0.071120,-0.072655,0.134174,-17.420330,-0.096992,-39.163727,291.000000
842,-1.235109,1.190030,9.413055,-0.071120,-0.072655,0.134174,-17.420330,-0.096992,-39.163727,291.000000
845,-1.235109,1.190030,9.413055,-0.064728,-0.055078,0.129380,-17.420330,-0.096992,-39.163727,291.000000
843,-1.235109,1.190030,9.413055,-0.064728,-0.055078,0.129380,-16.779865,-0.109291,-37.887222,291.000000
845,-1.251877,1.187634,9.451383,-0.064728,-0.055078,0.129380,-16.779865,-0.109291,-37.887222,291.000000
847,-1.225527,1.197216,9.434614,-0.064728,-0.055078,0.129380,-16.779865,-0.109291,-37.887222,291.000000
850,-1.225527,1.197216,9.434614,-0.061000,-0.048154,0.121391,-16.779865,-0.109291,-37.887222,291.000000
850,-1.230318,1.271476,9.405869,-0.061000,-0.048154,0.121391,-16.779865,-0.109291,-37.887222,291.000000
852,-1.227922,1.307408,9.439405,-0.061000,-0.048154,0.121391,-16.779865,-0.109291,-37.887222,291.000000
855,-1.227922,1.307408,9.439405,-0.058869,-0.050284,0.106477,-16.779865,-0.109291,-37.887222,291.000000
855,-1.266250,1.319386,9.384310,-0.058869,-0.050284,0.106477,-16.779865,-0.109291,-37.887222,291.000000
853,-1.266250,1.319386,9.384310,-0.058869,-0.050284,0.106477,-16.801765,0.446762,-41.106796,291.000000
857,-1.256668,1.290640,9.362750,-0.058869,-0.050284,0.106477,-16.801765,0.446762,-41.106796,291.000000
860,-1.256668,1.290640,9.362750,-0.056739,-0.061470,0.086237,-16.801765,0.446762,-41.106796,291.000000
860,-1.283018,1.312199,9.353168,-0.056739,-0.061470,0.086237,-16.801765,0.446762,-41.106796,291.000000
862,-1.287809,1.384064,9.288490,-0.056739,-0.061470,0.086237,-16.801765,0.446762,-41.106796,291.000000
865,-1.287809,1.384064,9.288490,-0.047151,-0.072655,0.065997,-16.801765,0.446762,-41.106796,291.000000
865,-1.333323,1.403228,9.266932,-0.047151,-0.072655,0.065997,-16.801765,0.446762,-41.106796,291.000000
863,-1.333323,1.403228,9.266932,-0.047151,-0.072655,0.065997,-16.794846,0.450165,-39.185738,291.000000
867,-1.316555,1.436764,9.230998,-0.047151,-0.072655,0.065997,-16.794846,0.450165,-39.185738,291.000000
870,-1.316555,1.436764,9.230998,-0.034901,-0.087036,0.045757,-16.794846,0.450165,-39.185738,291.000000
870,-1.278227,1.472697,9.226209,-0.034901,-0.087036,0.045757,-16.794846,0.450165,-39.185738,291.000000
872,-1.271041,1.470301,9.190275,-0.034901,-0.087036,0.045757,-16.794846,0.450165,-39.185738,291.000000
875,-1.271041,1.470301,9.190275,-0.025846,-0.104613,0.027648,-16.794846,0.450165,-39.185738,291.000000
873,-1.271041,1.470301,9.190275,-0.025846,-0.104613,0.027648,-17.430695,0.464737,-39.181526,291.000000
875,-1.263855,1.453533,9.192672,-0.025846,-0.104613,0.027648,-17.430695,0.464737,-39.181526,291.000000
877,-1.235109,1.482278,9.185485,-0.025846,-0.104613,0.027648,-17.430695,0.464737,-39.181526,291.000000
880,-1.235109,1.482278,9.185485,-0.014128,-0.119526,0.012201,-17.430695,0.464737,-39.181526,291.000000
880,-1.244691,1.470301,9.209439,-0.014128,-0.119526,0.012201,-17.430695,0.464737,-39.181526,291.000000
882,-1.168035,1.465510,9.142366,-0.014128,-0.119526,0.012201,-17.430695,0.464737,-39.181526,291.000000
885,-1.168035,1.465510,9.142366,-0.001345,-0.139234,-0.001647,-17.430695,0.464737,-39.181526,291.000000
883,-1.168035,1.465510,9.142366,-0.001345,-0.139234,-0.001647,-15.481686,-1.825909,-39.122971,291.000000
885,-1.208759,1.429578,9.113621,-0.001345,-0.139234,-0.001647,-15.481686,-1.825909,-39.122971,291.000000
887,-1.259064,1.412809,9.130388,-0.001345,-0.139234,-0.001647,-15.481686,-1.825909,-39.122971,291.000000
890,-1.259064,1.412809,9.130388,0.007710,-0.156811,-0.009104,-15.481686,-1.825909,-39.122971,291.000000
890,-1.287809,1.364900,9.120807,0.007710,-0.156811,-0.009104,-15.481686,-1.825909,-39.122971,291.000000
892,-1.249482,1.305013,9.156739,0.007710,-0.156811,-0.009104,-15.481686,-1.825909,-39.122971,291.000000
895,-1.249482,1.305013,9.156739,0.013569,-0.175985,-0.013898,-15.481686,-1.825909,-39.122971,291.000000
893,-1.249482,1.305013,9.156739,0.013569,-0.175985,-0.013898,-16.794846,0.450165,-39.185738,291.000000
895,-1.251877,1.295431,9.252559,0.013569,-0.175985,-0.013898,-16.794846,0.450165,-39.185738,291.000000
897,-1.328532,1.278663,9.274117,0.013569,-0.175985,-0.013898,-16.794846,0.450165,-39.185738,291.000000
900,-1.328532,1.278663,9.274117,0.021558,-0.187171,-0.010169,-16.794846,0.450165,-39.185738,291.000000
900,-1.271041,1.297827,9.353168,0.021558,-0.187171,-0.010169,-16.794846,0.450165,-39.185738,291.000000
902,-1.218341,1.305013,9.417847,0.021558,-0.187171,-0.010169,-16.794846,0.450165,-39.185738,291.000000
905,-1.218341,1.305013,9.417847,0.031146,-0.195693,-0.000582,-16.794846,0.450165,-39.185738,291.000000
905,-1.244691,1.331363,9.508875,0.031146,-0.195693,-0.000582,-16.794846,0.450165,-39.185738,291.000000
903,-1.244691,1.331363,9.508875,0.031146,-0.195693,-0.000582,-16.784481,-0.111565,-39.167938,291.000000
907,-1.172826,1.350527,9.499292,0.031146,-0.195693,-0.000582,-16.784481,-0.111565,-39.167938,291.000000
910,-1.194386,1.393646,9.530434,0.031146,-0.195693,-0.000582,-16.784481,-0.111565,-39.167938,291.000000
910,-1.194386,1.393646,9.530434,0.043929,-0.193030,0.014332,-16.784481,-0.111565,-39.167938,291.000000
912,-1.146476,1.379273,9.621462,0.043929,-0.193030,0.014332,-16.784481,-0.111565,-39.167938,291.000000
915,-1.146476,1.379273,9.621462,0.058842,-0.186105,0.031376,-16.784481,-0.111565,-39.167938,291.000000
915,-1.062634,1.376877,9.635835,0.058842,-0.186105,0.031376,-16.784481,-0.111565,-39.167938,291.000000
913,-1.062634,1.376877,9.635835,0.058842,-0.186105,0.031376,-16.782173,-0.110428,-38.527580,291.000000
917,-1.053052,1.352923,9.666976,0.058842,-0.186105,0.031376,-16.782173,-0.110428,-38.527580,291.000000
920,-1.053052,1.352923,9.666976,0.071626,-0.176518,0.050018,-16.782173,-0.110428,-38.527580,291.000000
920,-1.029098,1.319386,9.645416,0.071626,-0.176518,0.050018,-16.782173,-0.110428,-38.527580,291.000000
922,-0.976397,1.360109,9.690930,0.071626,-0.176518,0.050018,-16.782173,-0.110428,-38.527580,291.000000
925,-0.988375,1.396041,9.755609,0.071626,-0.176518,0.050018,-16.782173,-0.110428,-38.527580,291.000000
925,-0.988375,1.396041,9.755609,0.087072,-0.172257,0.064399,-16.782173,-0.110428,-38.527580,291.000000
923,-0.988375,1.396041,9.755609,0.087072,-0.172257,0.064399,-16.158989,0.435589,-39.189949,291.000000
927,-0.962024,1.384064,9.731653,0.087072,-0.172257,0.064399,-16.158989,0.435589,-39.189949,291.000000
930,-0.962024,1.384064,9.731653,0.098257,-0.177051,0.076117,-16.158989,0.435589,-39.189949,291.000000
930,-0.942860,1.374482,9.729259,0.098257,-0.177051,0.076117,-16.158989,0.435589,-39.189949,291.000000
932,-0.887764,1.415205,9.722073,0.098257,-0.177051,0.076117,-16.158989,0.435589,-39.189949,291.000000
935,-0.887764,1.415205,9.722073,0.103051,-0.181312,0.081443,-16.158989,0.435589,-39.189949,291.000000
935,-0.859019,1.391250,9.741236,0.103051,-0.181312,0.081443,-16.158989,0.435589,-39.189949,291.000000
934,-0.859019,1.391250,9.741236,0.103051,-0.181312,0.081443,-16.158989,0.435589,-39.189949,260.000000
933,-0.859019,1.391250,9.741236,0.103051,-0.181312,0.081443,-16.763756,-1.235027,-39.132339,260.000000
937,-0.815900,1.429578,9.707700,0.103051,-0.181312,0.081443,-16.763756,-1.235027,-39.132339,260.000000
940,-0.770386,1.443951,9.738840,0.103051,-0.181312,0.081443,-16.763756,-1.235027,-39.132339,260.000000
940,-0.770386,1.443951,9.738840,0.104116,-0.188236,0.084107,-16.763756,-1.235027,-39.132339,260.000000
942,-0.717685,1.439160,9.810704,0.104116,-0.188236,0.084107,-16.763756,-1.235027,-39.132339,260.000000
945,-0.717685,1.439160,9.810704,0.102518,-0.191964,0.081443,-16.763756,-1.235027,-39.132339,260.000000
945,-0.688940,1.422391,9.834660,0.102518,-0.191964,0.081443,-16.763756,-1.235027,-39.132339,260.000000
943,-0.688940,1.422391,9.834660,0.102518,-0.191964,0.081443,-16.797153,0.449032,-39.826088,260.000000
947,-0.693731,1.429578,9.841846,0.102518,-0.191964,0.081443,-16.797153,0.449032,-39.826088,260.000000
950,-0.708104,1.384064,9.906524,0.102518,-0.191964,0.081443,-16.797153,0.449032,-39.826088,260.000000
950,-0.708104,1.384064,9.906524,0.093996,-0.195693,0.072389,-16.797153,0.449032,-39.826088,260.000000
952,-0.732058,1.367295,9.947248,0.093996,-0.195693,0.072389,-16.797153,0.449032,-39.826088,260.000000
955,-0.732058,1.367295,9.947248,0.082278,-0.193030,0.060671,-16.797153,0.449032,-39.826088,260.000000
955,-0.734454,1.350527,9.964015,0.082278,-0.193030,0.060671,-16.797153,0.449032,-39.826088,260.000000
953,-0.734454,1.350527,9.964015,0.082278,-0.193030,0.060671,-16.797153,0.449032,-39.826088,260.000000
957,-0.777572,1.319386,10.019112,0.082278,-0.193030,0.060671,-16.797153,0.449032,-39.826088,260.000000
960,-0.777572,1.319386,10.019112,0.079082,-0.186638,0.044159,-16.797153,0.449032,-39.826088,260.000000
960,-0.772781,1.283454,10.057440,0.079082,-0.186638,0.044159,-16.797153,0.449032,-39.826088,260.000000
962,-0.767990,1.259499,10.114930,0.079082,-0.186638,0.044159,-16.797153,0.449032,-39.826088,260.000000
965,-0.767990,1.259499,10.114930,0.071093,-0.181844,0.029778,-16.797153,0.449032,-39.826088,260.000000
965,-0.758409,1.252312,10.112535,0.071093,-0.181844,0.029778,-16.797153,0.449032,-39.826088,260.000000
963,-0.758409,1.252312,10.112535,0.071093,-0.181844,0.029778,-17.420330,-0.096992,-39.163727,260.000000
967,-0.765595,1.225962,10.090976,0.071093,-0.181844,0.029778,-17.420330,-0.096992,-39.163727,260.000000
970,-0.765595,1.225962,10.090976,0.061506,-0.172257,0.013799,-17.420330,-0.096992,-39.163727,260.000000
970,-0.708104,1.180448,10.155653,0.061506,-0.172257,0.013799,-17.420330,-0.096992,-39.163727,260.000000
972,-0.602702,1.130143,10.189191,0.061506,-0.172257,0.013799,-17.420330,-0.096992,-39.163727,260.000000
975,-0.602702,1.130143,10.189191,0.048722,-0.162137,-0.012300,-17.420330,-0.096992,-39.163727,260.000000
975,-0.633844,1.134934,10.229914,0.048722,-0.162137,-0.012300,-17.420330,-0.096992,-39.163727,260.000000
973,-0.633844,1.134934,10.229914,0.048722,-0.162137,-0.012300,-17.386932,-1.781048,-38.469978,260.000000
977,-0.696126,1.048697,10.299382,0.048722,-0.162137,-0.012300,-17.386932,-1.781048,-38.469978,260.000000
980,-0.696126,1.048697,10.299382,0.037005,-0.148289,-0.039997,-17.386932,-1.781048,-38.469978,260.000000
980,-0.624262,0.991205,10.294591,0.037005,-0.148289,-0.039997,-17.386932,-1.781048,-38.469978,260.000000
982,-0.629053,0.916945,10.356874,0.037005,-0.148289,-0.039997,-17.386932,-1.781048,-38.469978,260.000000
985,-0.629053,0.916945,10.356874,0.028482,-0.137636,-0.065563,-17.386932,-1.781048,-38.469978,260.000000
985,-0.626657,0.818731,10.431133,0.028482,-0.137636,-0.065563,-17.386932,-1.781048,-38.469978,260.000000
983,-0.626657,0.818731,10.431133,0.028482,-0.137636,-0.065563,-16.115231,-1.810196,-38.478401,260.000000
987,-0.621866,0.785194,10.440716,0.028482,-0.137636,-0.065563,-16.115231,-1.810196,-38.478401,260.000000
990,-0.621866,0.785194,10.440716,0.018895,-0.129114,-0.085270,-16.115231,-1.810196,-38.478401,260.000000
990,-0.590725,0.703748,10.474253,0.018895,-0.129114,-0.085270,-16.115231,-1.810196,-38.478401,260.000000
992,-0.538025,0.677398,10.589235,0.018895,-0.129114,-0.085270,-16.115231,-1.810196,-38.478401,260.000000
995,-0.538025,0.677398,10.589235,0.014101,-0.122190,-0.102315,-16.115231,-1.810196,-38.478401,260.000000
995,-0.547606,0.627093,10.687449,0.014101,-0.122190,-0.102315,-16.115231,-1.810196,-38.478401,260.000000
993,-0.547606,0.627093,10.687449,0.014101,-0.122190,-0.102315,-17.404217,-1.222725,-40.408836,260.000000
997,-0.538025,0.548042,10.689845,0.014101,-0.122190,-0.102315,-17.404217,-1.222725,-40.408836,260.000000
1000,-0.538025,0.548042,10.689845,0.012503,-0.117929,-0.120957,-17.404217,-1.222725,-40.408836,260.000000
1000,-0.557188,0.519296,10.764106,0.012503,-0.117929,-0.120957,-17.404217,-1.222725,-40.408836,260.000000
1002,-0.552397,0.490550,10.903043,0.012503,-0.117929,-0.120957,-17.404217,-1.222725,-40.408836,260.000000
1005,-0.552397,0.490550,10.903043,0.014101,-0.111004,-0.134805,-17.404217,-1.222725,-40.408836,260.000000
1005,-0.535629,0.485759,11.020421,0.014101,-0.111004,-0.134805,-17.404217,-1.222725,-40.408836,260.000000
1003,-0.535629,0.485759,11.020421,0.014101,-0.111004,-0.134805,-17.422638,-0.098125,-39.804077,260.000000
1007,-0.593121,0.488155,11.039585,0.014101,-0.111004,-0.134805,-17.422638,-0.098125,-39.804077,260.000000
1010,-0.593121,0.488155,11.039585,0.023689,-0.095025,-0.144392,-17.422638,-0.098125,-39.804077,260.000000
1010,-0.655403,0.483364,11.070726,0.023689,-0.095025,-0.144392,-17.422638,-0.098125,-39.804077,260.000000
1012,-0.669776,0.457014,11.164150,0.023689,-0.095025,-0.144392,-17.422638,-0.098125,-39.804077,260.000000
1015,-0.669776,0.457014,11.164150,0.032211,-0.074785,-0.144392,-17.422638,-0.098125,-39.804077,260.000000
1015,-0.729663,0.447432,11.195292,0.032211,-0.074785,-0.144392,-17.422638,-0.098125,-39.804077,260.000000
1013,-0.729663,0.447432,11.195292,0.032211,-0.074785,-0.144392,-17.415714,-0.094719,-37.883011,260.000000
1017,-0.760804,0.473782,11.207269,0.032211,-0.074785,-0.144392,-17.415714,-0.094719,-37.883011,260.000000
1020,-0.760804,0.473782,11.207269,0.039135,-0.048154,-0.135870,-17.415714,-0.094719,-37.883011,260.000000
1020,-0.794341,0.504923,11.245597,0.039135,-0.048154,-0.135870,-17.415714,-0.094719,-37.883011,260.000000
1022,-0.779968,0.524087,11.214456,0.039135,-0.048154,-0.135870,-17.415714,-0.094719,-37.883011,260.000000
1025,-0.779968,0.524087,11.214456,0.048190,-0.022588,-0.118294,-17.415714,-0.094719,-37.883011,260.000000
1025,-0.732058,0.574392,11.274343,0.048190,-0.022588,-0.118294,-17.415714,-0.094719,-37.883011,260.000000
1023,-0.732058,0.574392,11.274343,0.048190,-0.022588,-0.118294,-16.123283,-1.247330,-37.855835,260.000000
1027,-0.698522,0.679793,11.339021,0.048190,-0.022588,-0.118294,-16.123283,-1.247330,-37.855835,260.000000
1030,-0.698522,0.679793,11.339021,0.057777,0.000316,-0.098054,-16.123283,-1.247330,-37.855835,260.000000
1030,-0.712894,0.773217,11.346207,0.057777,0.000316,-0.098054,-16.123283,-1.247330,-37.855835,260.000000
1032,-0.710499,0.912154,11.310274,0.057777,0.000316,-0.098054,-16.123283,-1.247330,-37.855835,260.000000
1035,-0.710499,0.912154,11.310274,0.071093,0.027480,-0.078346,-16.123283,-1.247330,-37.855835,260.000000
1035,-0.638635,1.099002,11.257573,0.071093,0.027480,-0.078346,-16.123283,-1.247330,-37.855835,260.000000
1033,-0.638635,1.099002,11.257573,0.071093,0.027480,-0.078346,-16.127899,-1.249603,-39.136551,260.000000
1037,-0.681753,1.269081,11.259970,0.071093,0.027480,-0.078346,-16.127899,-1.249603,-39.136551,260.000000
1040,-0.705708,1.396041,11.164150,0.071093,0.027480,-0.078346,-16.127899,-1.249603,-39.136551,260.000000
1040,-0.705708,1.396041,11.164150,0.090268,0.051981,-0.061302,-16.127899,-1.249603,-39.136551,260.000000
1042,-0.724872,1.484674,11.030004,0.090268,0.051981,-0.061302,-16.127899,-1.249603,-39.136551,260.000000
1045,-0.724872,1.484674,11.030004,0.106247,0.066362,-0.045856,-16.127899,-1.249603,-39.136551,260.000000
1045,-0.732058,1.511024,10.895857,0.106247,0.066362,-0.045856,-16.127899,-1.249603,-39.136551,260.000000
1043,-0.732058,1.511024,10.895857,0.106247,0.066362,-0.045856,-18.040066,-1.208149,-40.404625,260.000000
1047,-0.727267,1.503838,10.776082,0.106247,0.066362,-0.045856,-18.040066,-1.208149,-40.404625,260.000000
1050,-0.767990,1.451137,10.610794,0.106247,0.066362,-0.045856,-18.040066,-1.208149,-40.404625,260.000000
1050,-0.767990,1.451137,10.610794,0.110508,0.058905,-0.027213,-18.040066,-1.208149,-40.404625,260.000000
1052,-0.732058,1.376877,10.512579,0.110508,0.058905,-0.027213,-18.040066,-1.208149,-40.404625,260.000000
1051,-0.732058,1.376877,10.512579,0.110508,0.058905,-0.027213,-18.040066,-1.208149,-40.404625,228.000000
1055,-0.732058,1.376877,10.512579,0.102518,0.020556,-0.005376,-18.040066,-1.208149,-40.404625,228.000000
1055,-0.712894,1.312199,10.423947,0.102518,0.020556,-0.005376,-18.040066,-1.208149,-40.404625,228.000000
1053,-0.712894,1.312199,10.423947,0.102518,0.020556,-0.005376,-19.309467,-1.177864,-39.755852,228.000000
1057,-0.676962,1.134934,10.296987,0.102518,0.020556,-0.005376,-19.309467,-1.177864,-39.755852,228.000000
1060,-0.676962,1.134934,10.296987,0.076952,-0.031642,0.010603,-19.309467,-1.177864,-39.755852,228.000000
1060,-0.605098,1.046301,10.263451,0.076952,-0.031642,0.010603,-19.309467,-1.177864,-39.755852,228.000000
1062,-0.521256,0.979228,10.268242,0.076952,-0.031642,0.010603,-19.309467,-1.177864,-39.755852,228.000000
1065,-0.521256,0.979228,10.268242,0.034874,-0.083840,0.020191,-19.309467,-1.177864,-39.755852,228.000000
1065,-0.499697,0.902573,10.313755,0.034874,-0.083840,0.020191,-19.309467,-1.177864,-39.755852,228.000000
1063,-0.499697,0.902573,10.313755,0.034874,-0.083840,0.020191,-17.422638,-0.098125,-39.804077,228.000000
1067,-0.430228,0.869036,10.323338,0.034874,-0.083840,0.020191,-17.422638,-0.098125,-39.804077,228.000000
1070,-0.430228,0.869036,10.323338,-0.023716,-0.139766,0.016462,-17.422638,-0.098125,-39.804077,228.000000
1070,-0.320036,0.806753,10.402388,-0.023716,-0.139766,0.016462,-17.422638,-0.098125,-39.804077,228.000000
1072,-0.298477,0.761239,10.546117,-0.023716,-0.139766,0.016462,-17.422638,-0.098125,-39.804077,228.000000
1073,-0.298477,0.761239,10.546117,-0.023716,-0.139766,0.016462,-17.418022,-0.095856,-38.523369,228.000000
1075,-0.238590,0.718121,10.586840,-0.023716,-0.139766,0.016462,-17.418022,-0.095856,-38.523369,228.000000
1075,-0.238590,0.718121,10.586840,-0.091892,-0.189834,0.002081,-17.418022,-0.095856,-38.523369,228.000000
1077,-0.231403,0.710934,10.689845,-0.091892,-0.189834,0.002081,-17.418022,-0.095856,-38.523369,228.000000
1080,-0.118816,0.684584,10.924603,-0.091892,-0.189834,0.002081,-17.418022,-0.095856,-38.523369,228.000000
1080,-0.118816,0.684584,10.924603,-0.165396,-0.236705,-0.022420,-17.418022,-0.095856,-38.523369,228.000000
1082,-0.001437,0.627093,11.056354,-0.165396,-0.236705,-0.022420,-17.418022,-0.095856,-38.523369,228.000000
1085,-0.018206,0.571997,11.185709,-0.165396,-0.236705,-0.022420,-17.418022,-0.095856,-38.523369,228.000000
1085,-0.018206,0.571997,11.185709,-0.250084,-0.271327,-0.053312,-17.418022,-0.095856,-38.523369,228.000000
1083,-0.018206,0.571997,11.185709,-0.250084,-0.271327,-0.053312,-16.127899,-1.249603,-39.136551,228.000000
1087,-0.027788,0.552833,11.334229,-0.250084,-0.271327,-0.053312,-16.127899,-1.249603,-39.136551,228.000000
1090,0.020122,0.401918,11.461189,-0.250084,-0.271327,-0.053312,-16.127899,-1.249603,-39.136551,228.000000
1090,0.020122,0.401918,11.461189,-0.335305,-0.280381,-0.082075,-16.127899,-1.249603,-39.136551,228.000000
1092,0.024913,0.289330,11.580963,-0.335305,-0.280381,-0.082075,-16.127899,-1.249603,-39.136551,228.000000
1095,0.056054,0.229443,11.767811,-0.335305,-0.280381,-0.082075,-16.127899,-1.249603,-39.136551,228.000000
1095,0.056054,0.229443,11.767811,-0.408276,-0.281447,-0.106576,-16.127899,-1.249603,-39.136551,228.000000
1093,0.056054,0.229443,11.767811,-0.408276,-0.281447,-0.106576,-15.479378,-1.824772,-38.482613,228.000000
1097,0.060845,0.090505,11.933099,-0.408276,-0.281447,-0.106576,-15.479378,-1.824772,-38.482613,228.000000
1100,0.060845,0.090505,11.933099,-0.464735,-0.288903,-0.124152,-15.479378,-1.824772,-38.482613,228.000000
1100,0.115941,-0.067596,12.026523,-0.464735,-0.288903,-0.124152,-15.479378,-1.824772,-38.482613,228.000000
1102,0.113546,-0.194557,12.148691,-0.464735,-0.288903,-0.124152,-15.479378,-1.824772,-38.482613,228.000000
1105,0.113546,-0.194557,12.148691,-0.500421,-0.302219,-0.137468,-15.479378,-1.824772,-38.482613,228.000000
1105,0.108755,-0.359845,12.313979,-0.500421,-0.302219,-0.137468,-15.479378,-1.824772,-38.482613,228.000000
1103,0.108755,-0.359845,12.313979,-0.500421,-0.302219,-0.137468,-16.740719,-2.357353,-38.456390,228.000000
1107,0.161455,-0.503573,12.445731,-0.500421,-0.302219,-0.137468,-16.740719,-2.357353,-38.456390,228.000000
1109,0.161455,-0.503573,12.445731,-0.500421,-0.302219,-0.137468,-16.740719,-2.357353,-38.456390,211.000000
1110,0.161455,-0.503573,12.445731,-0.516400,-0.323524,-0.149186,-16.740719,-2.357353,-38.456390,211.000000
1110,0.190201,-0.640116,12.613415,-0.516400,-0.323524,-0.149186,-16.740719,-2.357353,-38.456390,211.000000
1112,0.235715,-0.774262,12.754747,-0.516400,-0.323524,-0.149186,-16.740719,-2.357353,-38.456390,211.000000
1115,0.235715,-0.774262,12.754747,-0.511074,-0.343232,-0.156110,-16.740719,-2.357353,-38.456390,211.000000
1115,0.233319,-0.850918,12.850568,-0.511074,-0.343232,-0.156110,-16.740719,-2.357353,-38.456390,211.000000
1113,0.233319,-0.850918,12.850568,-0.511074,-0.343232,-0.156110,-16.784481,-0.111565,-39.167938,211.000000
1117,0.209365,-0.939550,12.989505,-0.511074,-0.343232,-0.156110,-16.784481,-0.111565,-39.167938,211.000000
1120,0.209365,-0.939550,12.989505,-0.476985,-0.352287,-0.157176,-16.784481,-0.111565,-39.167938,211.000000
1120,0.235715,-0.951528,13.051787,-0.476985,-0.352287,-0.157176,-16.784481,-0.111565,-39.167938,211.000000
1122,0.266856,-0.977878,13.126047,-0.476985,-0.352287,-0.157176,-16.784481,-0.111565,-39.167938,211.000000
1125,0.266856,-0.977878,13.126047,-0.418396,-0.353884,-0.162502,-16.784481,-0.111565,-39.167938,211.000000
1125,0.286020,-1.001833,13.195516,-0.418396,-0.353884,-0.162502,-16.784481,-0.111565,-39.167938,211.000000
1123,0.286020,-1.001833,13.195516,-0.418396,-0.353884,-0.162502,-16.775291,-1.240704,-42.334122,211.000000
1127,0.326743,-1.035370,13.205097,-0.418396,-0.353884,-0.162502,-16.775291,-1.240704,-42.334122,211.000000
1130,0.326743,-1.035370,13.205097,-0.337436,-0.351221,-0.166763,-16.775291,-1.240704,-42.334122,211.000000
1130,0.341116,-1.090465,13.202703,-0.337436,-0.351221,-0.166763,-16.775291,-1.240704,-42.334122,211.000000
1132,0.333930,-1.054533,13.193120,-0.337436,-0.351221,-0.166763,-16.775291,-1.240704,-42.334122,211.000000
1135,0.333930,-1.054533,13.193120,-0.226648,-0.338971,-0.174752,-16.775291,-1.240704,-42.334122,211.000000
1135,0.350698,-1.054533,13.130837,-0.226648,-0.338971,-0.174752,-16.775291,-1.240704,-42.334122,211.000000
1133,0.350698,-1.054533,13.130837,-0.226648,-0.338971,-0.174752,-18.056183,-0.082417,-39.159515,211.000000
1137,0.386630,-1.056929,13.035018,-0.226648,-0.338971,-0.174752,-18.056183,-0.082417,-39.159515,211.000000
1140,0.386630,-1.056929,13.035018,-0.093490,-0.308078,-0.180611,-18.056183,-0.082417,-39.159515,211.000000
1140,0.374653,-0.992251,12.819426,-0.093490,-0.308078,-0.180611,-18.056183,-0.082417,-39.159515,211.000000
1142,0.345907,-0.968296,12.694860,-0.093490,-0.308078,-0.180611,-18.056183,-0.082417,-39.159515,211.000000
1145,0.345907,-0.968296,12.694860,0.056179,-0.253217,-0.183807,-18.056183,-0.082417,-39.159515,211.000000
1145,0.393817,-0.814985,12.469686,0.056179,-0.253217,-0.183807,-18.056183,-0.082417,-39.159515,211.000000
1143,0.393817,-0.814985,12.469686,0.056179,-0.253217,-0.183807,-14.879230,-0.156422,-39.820923,211.000000
1147,0.338721,-0.678443,12.187019,0.056179,-0.253217,-0.183807,-14.879230,-0.156422,-39.820923,211.000000
1150,0.338721,-0.678443,12.187019,0.202653,-0.181844,-0.184872,-14.879230,-0.156422,-39.820923,211.000000
1150,0.341116,-0.580229,11.801348,0.202653,-0.181844,-0.184872,-14.879230,-0.156422,-39.820923,211.000000
1152,0.321952,-0.505969,11.372557,0.202653,-0.181844,-0.184872,-14.879230,-0.156422,-39.820923,211.000000
1155,0.321952,-0.505969,11.372557,0.341670,-0.108874,-0.176350,-14.879230,-0.156422,-39.820923,211.000000
1155,0.276438,-0.419732,11.065935,0.341670,-0.108874,-0.176350,-14.879230,-0.156422,-39.820923,211.000000
1153,0.276438,-0.419732,11.065935,0.341670,-0.108874,-0.176350,-16.759140,-1.232754,-37.851624,211.000000
1157,0.190201,-0.343076,10.713800,0.341670,-0.108874,-0.176350,-16.759140,-1.232754,-37.851624,211.000000
1160,0.190201,-0.343076,10.713800,0.458849,-0.048154,-0.163035,-16.759140,-1.232754,-37.851624,211.000000
1160,0.240506,-0.213720,10.299382,0.458849,-0.048154,-0.163035,-16.759140,-1.232754,-37.851624,211.000000
1162,0.228529,-0.117901,9.928083,0.458849,-0.048154,-0.163035,-16.759140,-1.232754,-37.851624,211.000000
1165,0.228529,-0.117901,9.928083,0.548864,-0.002348,-0.144392,-16.759140,-1.232754,-37.851624,211.000000
1165,0.197387,-0.062805,9.621462,0.548864,-0.002348,-0.144392,-16.759140,-1.232754,-37.851624,211.000000
1163,0.197387,-0.062805,9.621462,0.548864,-0.002348,-0.144392,-16.753391,-1.796757,-39.114548,211.000000
1170,0.197387,-0.062805,9.621462,0.605855,0.018958,-0.128414,-16.753391,-1.796757,-39.114548,211.000000
1167,0.259670,0.054573,9.322027,0.605855,0.018958,-0.128414,-16.753391,-1.796757,-39.114548,211.000000
1167,0.259670,0.054573,9.322027,0.605855,0.018958,-0.128414,-16.753391,-1.796757,-39.114548,191.000000
1170,0.252483,0.145601,9.058524,0.605855,0.018958,-0.128414,-16.753391,-1.796757,-39.114548,191.000000
1172,0.221342,0.179138,8.790231,0.605855,0.018958,-0.128414,-16.753391,-1.796757,-39.114548,191.000000
1175,0.221342,0.179138,8.790231,0.639411,0.025882,-0.117228,-16.753391,-1.796757,-39.114548,191.000000
1175,0.240506,0.260584,8.598593,0.639411,0.025882,-0.117228,-16.753391,-1.796757,-39.114548,191.000000
1173,0.240506,0.260584,8.598593,0.639411,0.025882,-0.117228,-16.107174,-2.373066,-39.100960,191.000000
1177,0.281229,0.303703,8.411745,0.639411,0.025882,-0.117228,-16.107174,-2.373066,-39.100960,191.000000
1180,0.281229,0.303703,8.411745,0.653792,0.029610,-0.113500,-16.107174,-2.373066,-39.100960,191.000000
1180,0.281229,0.361194,8.263226,0.653792,0.029610,-0.113500,-16.107174,-2.373066,-39.100960,191.000000
1182,0.238110,0.389940,8.090751,0.653792,0.029610,-0.113500,-16.107174,-2.373066,-39.100960,191.000000
1185,0.238110,0.389940,8.090751,0.646868,0.018958,-0.116696,-16.107174,-2.373066,-39.100960,191.000000
1185,0.240506,0.404313,7.937440,0.646868,0.018958,-0.116696,-16.107174,-2.373066,-39.100960,191.000000
1183,0.240506,0.404313,7.937440,0.646868,0.018958,-0.116696,-17.386932,-1.781048,-38.469978,191.000000
1187,0.223738,0.394731,7.848807,0.646868,0.018958,-0.116696,-17.386932,-1.781048,-38.469978,191.000000
1190,0.223738,0.394731,7.848807,0.624497,-0.001815,-0.123087,-17.386932,-1.781048,-38.469978,191.000000
1190,0.230924,0.468991,7.781734,0.624497,-0.001815,-0.123087,-17.386932,-1.781048,-38.469978,191.000000
1192,0.283625,0.502528,7.726638,0.624497,-0.001815,-0.123087,-17.386932,-1.781048,-38.469978,191.000000
1195,0.283625,0.502528,7.726638,0.579756,-0.023653,-0.129479,-17.386932,-1.781048,-38.469978,191.000000
1195,0.278834,0.485759,7.633214,0.579756,-0.023653,-0.129479,-17.386932,-1.781048,-38.469978,191.000000
1193,0.278834,0.485759,7.633214,0.579756,-0.023653,-0.129479,-16.731491,-2.352814,-35.894966,191.000000
1197,0.274043,0.490550,7.585304,0.579756,-0.023653,-0.129479,-16.731491,-2.352814,-35.894966,191.000000
1200,0.274043,0.490550,7.585304,0.525428,-0.046023,-0.138534,-16.731491,-2.352814,-35.894966,191.000000
1200,0.271647,0.531273,7.590096,0.525428,-0.046023,-0.138534,-16.731491,-2.352814,-35.894966,191.000000
1202,0.278834,0.528878,7.626028,0.525428,-0.046023,-0.138534,-16.731491,-2.352814,-35.894966,191.000000
1205,0.278834,0.528878,7.626028,0.458849,-0.063600,-0.150784,-16.731491,-2.352814,-35.894966,191.000000
1205,0.302788,0.545646,7.664355,0.458849,-0.063600,-0.150784,-16.731491,-2.352814,-35.894966,191.000000
1203,0.302788,0.545646,7.664355,0.458849,-0.063600,-0.150784,-17.389240,-1.782185,-39.110336,191.000000
1207,0.314766,0.500132,7.649982,0.458849,-0.063600,-0.150784,-17.389240,-1.782185,-39.110336,191.000000
1210,0.314766,0.500132,7.649982,0.379487,-0.071057,-0.163567,-17.389240,-1.782185,-39.110336,191.000000
1210,0.312370,0.497737,7.695497,0.379487,-0.071057,-0.163567,-17.389240,-1.782185,-39.110336,191.000000
1212,0.389026,0.452223,7.726638,0.379487,-0.071057,-0.163567,-17.389240,-1.782185,-39.110336,191.000000
1215,0.389026,0.452223,7.726638,0.297994,-0.063068,-0.177416,-17.389240,-1.782185,-39.110336,191.000000
1215,0.365071,0.437850,7.841621,0.297994,-0.063068,-0.177416,-17.389240,-1.782185,-39.110336,191.000000
1213,0.365071,0.437850,7.841621,0.297994,-0.063068,-0.177416,-16.102558,-2.370792,-37.820244,191.000000
1217,0.401003,0.464200,7.817666,0.297994,-0.063068,-0.177416,-16.102558,-2.370792,-37.820244,191.000000
1220,0.401003,0.464200,7.817666,0.216501,-0.042828,-0.189666,-16.102558,-2.370792,-37.820244,191.000000
1220,0.441726,0.406709,7.923067,0.216501,-0.042828,-0.189666,-16.102558,-2.370792,-37.820244,191.000000
1222,0.460890,0.370776,7.992536,0.216501,-0.042828,-0.189666,-16.102558,-2.370792,-37.820244,191.000000
1225,0.460890,0.370776,7.992536,0.130215,-0.020457,-0.199254,-16.102558,-2.370792,-37.820244,191.000000
1225,0.448913,0.346822,8.066796,0.130215,-0.020457,-0.199254,-16.102558,-2.370792,-37.820244,191.000000
1223,0.448913,0.346822,8.066796,0.130215,-0.020457,-0.199254,-16.728050,-2.917946,-37.798233,191.000000
1227,0.477658,0.265375,8.085960,0.130215,-0.020457,-0.199254,-16.728050,-2.917946,-37.798233,191.000000
1230,0.477658,0.265375,8.085960,0.052983,0.002979,-0.207776,-16.728050,-2.917946,-37.798233,191.000000
1230,0.472867,0.215070,8.167406,0.052983,0.002979,-0.207776,-16.728050,-2.917946,-37.798233,191.000000
1232,0.432144,0.188720,8.349463,0.052983,0.002979,-0.207776,-16.728050,-2.917946,-37.798233,191.000000
1235,0.432144,0.188720,8.349463,-0.018922,0.032274,-0.214700,-16.728050,-2.917946,-37.798233,191.000000
1235,0.410585,0.150392,8.426119,-0.018922,0.032274,-0.214700,-16.728050,-2.917946,-37.798233,191.000000
1233,0.410585,0.150392,8.426119,-0.018922,0.032274,-0.214700,-16.112923,-1.809059,-37.838036,191.000000
1237,0.415376,0.102483,8.560265,-0.018922,0.032274,-0.214700,-16.112923,-1.809059,-37.838036,191.000000
1240,0.415376,0.102483,8.560265,-0.090827,0.057840,-0.221624,-16.112923,-1.809059,-37.838036,191.000000
1240,0.377048,0.090505,8.665667,-0.090827,0.057840,-0.221624,-16.112923,-1.809059,-37.838036,191.000000
1242,0.343511,0.088110,8.871677,-0.090827,0.057840,-0.221624,-16.112923,-1.809059,-37.838036,191.000000
1245,0.324348,0.073737,9.017801,-0.090827,0.057840,-0.221624,-16.112923,-1.809059,-37.838036,191.000000
1245,0.324348,0.073737,9.017801,-0.146753,0.087135,-0.228548,-16.112923,-1.809059,-37.838036,191.000000
1243,0.324348,0.073737,9.017801,-0.146753,0.087135,-0.228548,-16.699268,-4.604275,-38.385201,191.000000
1247,0.257274,0.056969,9.104038,-0.146753,0.087135,-0.228548,-16.699268,-4.604275,-38.385201,191.000000
1250,0.257274,0.056969,9.104038,-0.182972,0.118560,-0.237603,-16.699268,-4.604275,-38.385201,191.000000
1250,0.230924,-0.012500,9.271723,-0.182972,0.118560,-0.237603,-16.699268,-4.604275,-38.385201,191.000000
1252,0.135105,-0.065201,9.437011,-0.182972,0.118560,-0.237603,-16.699268,-4.604275,-38.385201,191.000000
1255,0.135105,-0.065201,9.437011,-0.204278,0.151583,-0.246125,-16.699268,-4.604275,-38.385201,191.000000
1255,0.094382,-0.093946,9.535224,-0.204278,0.151583,-0.246125,-16.699268,-4.604275,-38.385201,191.000000
1253,0.094382,-0.093946,9.535224,-0.204278,0.151583,-0.246125,-16.099117,-2.935928,-39.723511,191.000000
1257,0.036890,-0.156229,9.595112,-0.204278,0.151583,-0.246125,-16.099117,-2.935928,-39.723511,191.000000
1260,0.036890,-0.156229,9.595112,-0.215463,0.181410,-0.251451,-16.099117,-2.935928,-39.723511,191.000000
1260,0.015331,-0.204139,9.695722,-0.215463,0.181410,-0.251451,-16.099117,-2.935928,-39.723511,191.000000
1262,-0.078093,-0.273607,9.760400,-0.215463,0.181410,-0.251451,-16.099117,-2.935928,-39.723511,191.000000
1265,-0.078093,-0.273607,9.760400,-0.219191,0.209640,-0.257843,-16.099117,-2.935928,-39.723511,191.000000
1265,-0.094861,-0.345472,9.952039,-0.219191,0.209640,-0.257843,-16.099117,-2.935928,-39.723511,191.000000
1263,-0.094861,-0.345472,9.952039,-0.219191,0.209640,-0.257843,-17.368515,-2.905647,-39.074738,191.000000
1267,-0.123607,-0.357449,9.935269,-0.219191,0.209640,-0.257843,-17.368515,-2.905647,-39.074738,191.000000
1270,-0.123607,-0.357449,9.935269,-0.216528,0.227749,-0.264767,-17.368515,-2.905647,-39.074738,191.000000
1270,-0.157143,-0.441291,9.992762,-0.216528,0.227749,-0.264767,-17.368515,-2.905647,-39.074738,191.000000
1272,-0.207449,-0.462850,10.093371,-0.216528,0.227749,-0.264767,-17.368515,-2.905647,-39.074738,191.000000
1275,-0.207449,-0.462850,10.093371,-0.211735,0.239467,-0.267963,-17.368515,-2.905647,-39.074738,191.000000
1275,-0.264940,-0.479619,10.090976,-0.211735,0.239467,-0.267963,-17.368515,-2.905647,-39.074738,191.000000
1273,-0.264940,-0.479619,10.090976,-0.211735,0.239467,-0.267963,-17.386932,-1.781048,-38.469978,191.000000
1277,-0.262545,-0.522737,10.107744,-0.211735,0.239467,-0.267963,-17.386932,-1.781048,-38.469978,191.000000
1280,-0.262545,-0.522737,10.107744,-0.202147,0.258109,-0.271159,-17.386932,-1.781048,-38.469978,191.000000
1280,-0.293686,-0.510760,10.208354,-0.202147,0.258109,-0.271159,-17.386932,-1.781048,-38.469978,191.000000
1282,-0.308059,-0.522737,10.261054,-0.202147,0.258109,-0.271159,-17.386932,-1.781048,-38.469978,191.000000
1285,-0.308059,-0.522737,10.261054,-0.186701,0.279415,-0.278083,-17.386932,-1.781048,-38.469978,191.000000
1285,-0.370341,-0.496387,10.244287,-0.186701,0.279415,-0.278083,-17.386932,-1.781048,-38.469978,191.000000
1284,-0.370341,-0.496387,10.244287,-0.186701,0.279415,-0.278083,-17.386932,-1.781048,-38.469978,175.000000
1283,-0.370341,-0.496387,10.244287,-0.186701,0.279415,-0.278083,-17.381187,-2.345051,-39.732887,175.000000
1287,-0.387109,-0.458059,10.258659,-0.186701,0.279415,-0.278083,-17.381187,-2.345051,-39.732887,175.000000
1290,-0.387109,-0.458059,10.258659,-0.166461,0.300187,-0.278616,-17.381187,-2.345051,-39.732887,175.000000
1290,-0.437414,-0.429314,10.332919,-0.166461,0.300187,-0.278616,-17.381187,-2.345051,-39.732887,175.000000
1292,-0.492510,-0.419732,10.253868,-0.166461,0.300187,-0.278616,-17.381187,-2.345051,-39.732887,175.000000
1295,-0.492510,-0.419732,10.253868,-0.147819,0.309775,-0.274355,-17.381187,-2.345051,-39.732887,175.000000
1295,-0.566770,-0.379008,10.294591,-0.147819,0.309775,-0.274355,-17.381187,-2.345051,-39.732887,175.000000
1293,-0.566770,-0.379008,10.294591,-0.147819,0.309775,-0.274355,-16.117538,-1.811333,-39.118759,175.000000
1297,-0.569166,-0.357449,10.196377,-0.147819,0.309775,-0.274355,-16.117538,-1.811333,-39.118759,175.000000
1300,-0.569166,-0.357449,10.196377,-0.122252,0.310840,-0.265833,-16.117538,-1.811333,-39.118759,175.000000
1300,-0.590725,-0.292771,10.167631,-0.122252,0.310840,-0.265833,-16.117538,-1.811333,-39.118759,175.000000
1302,-0.626657,-0.225698,10.043066,-0.122252,0.310840,-0.265833,-16.117538,-1.811333,-39.118759,175.000000
1305,-0.626657,-0.225698,10.043066,-0.093490,0.311373,-0.251984,-16.117538,-1.811333,-39.118759,175.000000
1305,-0.619471,-0.192161,10.014320,-0.093490,0.311373,-0.251984,-16.117538,-1.811333,-39.118759,175.000000
1303,-0.619471,-0.192161,10.014320,-0.093490,0.311373,-0.251984,-17.378880,-2.343918,-39.092537,175.000000
1307,-0.641030,-0.161020,9.964015,-0.093490,0.311373,-0.251984,-17.378880,-2.343918,-39.092537,175.000000
1310,-0.641030,-0.161020,9.964015,-0.064728,0.303916,-0.238668,-17.378880,-2.343918,-39.092537,175.000000
1310,-0.691335,-0.149042,9.829868,-0.064728,0.303916,-0.238668,-17.378880,-2.343918,-39.092537,175.000000
1312,-0.660194,-0.091551,9.729259,-0.064728,0.303916,-0.238668,-17.378880,-2.343918,-39.092537,175.000000
1315,-0.660194,-0.091551,9.729259,-0.035966,0.295926,-0.223755,-17.378880,-2.343918,-39.092537,175.000000
1315,-0.657798,-0.050828,9.678953,-0.035966,0.295926,-0.223755,-17.378880,-2.343918,-39.092537,175.000000
1313,-0.657798,-0.050828,9.678953,-0.035966,0.295926,-0.223755,-18.002056,-2.889935,-38.430168,175.000000
1317,-0.655403,0.009059,9.520851,-0.035966,0.295926,-0.223755,-18.002056,-2.889935,-38.430168,175.000000
1320,-0.655403,0.009059,9.520851,-0.002943,0.282611,-0.208308,-18.002056,-2.889935,-38.430168,175.000000
1320,-0.672171,0.023432,9.389100,-0.002943,0.282611,-0.208308,-18.002056,-2.889935,-38.430168,175.000000
1322,-0.710499,0.061760,9.264535,-0.002943,0.282611,-0.208308,-18.002056,-2.889935,-38.430168,175.000000
1325,-0.710499,0.061760,9.264535,0.027950,0.262370,-0.195525,-18.002056,-2.889935,-38.430168,175.000000
1325,-0.676962,0.152788,9.125597,0.027950,0.262370,-0.195525,-18.002056,-2.889935,-38.430168,175.000000
1323,-0.676962,0.152788,9.125597,0.027950,0.262370,-0.195525,-16.717686,-3.479675,-37.780434,175.000000
1327,-0.722476,0.215070,8.977078,0.027950,0.262370,-0.195525,-16.717686,-3.479675,-37.780434,175.000000
1330,-0.722476,0.215070,8.977078,0.054581,0.238935,-0.182742,-16.717686,-3.479675,-37.780434,175.000000
1330,-0.746431,0.217466,8.943542,0.054581,0.238935,-0.182742,-16.717686,-3.479675,-37.780434,175.000000
1332,-0.722476,0.303703,8.763881,0.054581,0.238935,-0.182742,-16.717686,-3.479675,-37.780434,175.000000
1335,-0.722476,0.303703,8.763881,0.080148,0.210705,-0.166763,-16.717686,-3.479675,-37.780434,175.000000
1335,-0.703313,0.361194,8.589010,0.080148,0.210705,-0.166763,-16.717686,-3.479675,-37.780434,175.000000
1333,-0.703313,0.361194,8.589010,0.080148,0.210705,-0.166763,-16.088757,-3.497658,-39.705719,175.000000
1337,-0.712894,0.404313,8.514750,0.080148,0.210705,-0.166763,-16.088757,-3.497658,-39.705719,175.000000
1340,-0.712894,0.404313,8.514750,0.100388,0.181943,-0.153447,-16.088757,-3.497658,-39.705719,175.000000
1340,-0.686544,0.457014,8.366231,0.100388,0.181943,-0.153447,-16.088757,-3.497658,-39.705719,175.000000
1342,-0.619471,0.531273,8.256039,0.100388,0.181943,-0.153447,-16.088757,-3.497658,-39.705719,175.000000
1345,-0.619471,0.531273,8.256039,0.114769,0.155844,-0.138534,-16.088757,-3.497658,-39.705719,175.000000
1345,-0.638635,0.543251,8.126683,0.114769,0.155844,-0.138534,-16.088757,-3.497658,-39.705719,175.000000
1343,-0.638635,0.543251,8.126683,0.114769,0.155844,-0.138534,-15.429871,-4.634563,-39.033981,175.000000
1347,-0.612284,0.612720,8.026073,0.114769,0.155844,-0.138534,-15.429871,-4.634563,-39.033981,175.000000
1350,-0.612284,0.612720,8.026073,0.120095,0.135604,-0.125750,-15.429871,-4.634563,-39.033981,175.000000
1350,-0.571561,0.643861,7.949418,0.120095,0.135604,-0.125750,-15.429871,-4.634563,-39.033981,175.000000
1352,-0.571561,0.677398,7.863180,0.120095,0.135604,-0.125750,-15.429871,-4.634563,-39.033981,175.000000
1355,-0.571561,0.677398,7.863180,0.121693,0.121223,-0.116163,-15.429871,-4.634563,-39.033981,175.000000
1355,-0.545211,0.749262,7.834435,0.121693,0.121223,-0.116163,-15.429871,-4.634563,-39.033981,175.000000
1353,-0.545211,0.749262,7.834435,0.121693,0.121223,-0.116163,-16.093369,-3.499928,-40.986427,175.000000
1357,-0.547606,0.770821,7.752988,0.121693,0.121223,-0.116163,-16.093369,-3.499928,-40.986427,175.000000
1360,-0.547606,0.770821,7.752988,0.118497,0.113234,-0.107641,-16.093369,-3.499928,-40.986427,175.000000
1360,-0.480533,0.797172,7.697892,0.118497,0.113234,-0.107641,-16.093369,-3.499928,-40.986427,175.000000
1362,-0.466160,0.849872,7.635610,0.118497,0.113234,-0.107641,-16.093369,-3.499928,-40.986427,175.000000
1365,-0.466160,0.849872,7.635610,0.104116,0.104711,-0.102847,-16.093369,-3.499928,-40.986427,175.000000
1365,-0.427833,0.883409,7.523023,0.104116,0.104711,-0.102847,-16.093369,-3.499928,-40.986427,175.000000
1363,-0.427833,0.883409,7.523023,0.104116,0.104711,-0.102847,-15.473633,-2.388775,-39.745522,175.000000
1367,-0.401482,0.960064,7.494277,0.104116,0.104711,-0.102847,-15.473633,-2.388775,-39.745522,175.000000
1370,-0.401482,0.960064,7.494277,0.083343,0.099918,-0.101249,-15.473633,-2.388775,-39.745522,175.000000
1370,-0.442205,0.967251,7.477508,0.083343,0.099918,-0.101249,-15.473633,-2.388775,-39.745522,175.000000
1372,-0.461369,0.976832,7.420016,0.083343,0.099918,-0.101249,-15.473633,-2.388775,-39.745522,175.000000
1375,-0.461369,0.976832,7.420016,0.064169,0.099385,-0.098054,-15.473633,-2.388775,-39.745522,175.000000
1375,-0.401482,1.051092,7.479903,0.064169,0.099385,-0.098054,-15.473633,-2.388775,-39.745522,175.000000
1373,-0.401482,1.051092,7.479903,0.064169,0.099385,-0.098054,-13.526924,-4.680553,-40.327324,175.000000
1377,-0.396691,1.110979,7.561350,0.064169,0.099385,-0.098054,-13.526924,-4.680553,-40.327324,175.000000
1380,-0.396691,1.110979,7.561350,0.038070,0.094059,-0.095923,-13.526924,-4.680553,-40.327324,175.000000
1380,-0.348782,1.079838,7.532604,0.038070,0.094059,-0.095923,-13.526924,-4.680553,-40.327324,175.000000
1382,-0.336804,1.120561,7.527813,0.038070,0.094059,-0.095923,-13.526924,-4.680553,-40.327324,175.000000
1385,-0.336804,1.120561,7.527813,0.021558,0.099385,-0.093792,-13.526924,-4.680553,-40.327324,175.000000
1385,-0.384714,1.170866,7.525418,0.021558,0.099385,-0.093792,-13.526924,-4.680553,-40.327324,175.000000
1383,-0.384714,1.170866,7.525418,0.021558,0.099385,-0.093792,-15.469017,-2.386505,-38.464813,175.000000
1387,-0.312850,1.163680,7.544581,0.021558,0.099385,-0.093792,-15.469017,-2.386505,-38.464813,175.000000
1390,-0.312850,1.163680,7.544581,0.003449,0.111636,-0.088999,-15.469017,-2.386505,-38.464813,175.000000
1390,-0.358364,1.130143,7.537395,0.003449,0.111636,-0.088999,-15.469017,-2.386505,-38.464813,175.000000
1392,-0.363155,1.178053,7.592491,0.003449,0.111636,-0.088999,-15.469017,-2.386505,-38.464813,175.000000
1395,-0.363155,1.178053,7.592491,-0.014128,0.121223,-0.085270,-15.469017,-2.386505,-38.464813,175.000000
1395,-0.329618,1.146911,7.573328,-0.014128,0.121223,-0.085270,-15.469017,-2.386505,-38.464813,175.000000
1393,-0.329618,1.146911,7.573328,-0.014128,0.121223,-0.085270,-15.466709,-2.385368,-37.824455,175.000000
1397,-0.351177,1.180448,7.549373,-0.014128,0.121223,-0.085270,-15.466709,-2.385368,-37.824455,175.000000
1400,-0.387109,1.187634,7.602073,-0.014128,0.121223,-0.085270,-15.466709,-2.385368,-37.824455,175.000000
1400,-0.387109,1.187634,7.602073,-0.033303,0.126549,-0.083672,-15.466709,-2.385368,-37.824455,175.000000
1400,-0.387109,1.187634,7.602073,-0.033303,0.126549,-0.083672,-15.466709,-2.385368,-37.824455,160.000000
1402,-0.365550,1.118166,7.606864,-0.033303,0.126549,-0.083672,-15.466709,-2.385368,-37.824455,160.000000
1405,-0.365550,1.118166,7.606864,-0.053010,0.123886,-0.084738,-15.466709,-2.385368,-37.824455,160.000000
1405,-0.332013,1.096606,7.661960,-0.053010,0.123886,-0.084738,-15.466709,-2.385368,-37.824455,160.000000
1403,-0.332013,1.096606,7.661960,-0.053010,0.123886,-0.084738,-16.086449,-3.496525,-39.065361,160.000000
1407,-0.348782,1.106188,7.733824,-0.053010,0.123886,-0.084738,-16.086449,-3.496525,-39.065361,160.000000
1410,-0.348782,1.106188,7.733824,-0.067924,0.108973,-0.092727,-16.086449,-3.496525,-39.065361,160.000000
1410,-0.343991,1.089420,7.724242,-0.067924,0.108973,-0.092727,-16.086449,-3.496525,-39.065361,160.000000
1412,-0.372737,1.024742,7.846412,-0.067924,0.108973,-0.092727,-16.086449,-3.496525,-39.065361,160.000000
1415,-0.372737,1.024742,7.846412,-0.089229,0.096189,-0.100184,-16.086449,-3.496525,-39.065361,160.000000
1415,-0.363155,1.019951,7.870367,-0.089229,0.096189,-0.100184,-16.086449,-3.496525,-39.065361,160.000000
1413,-0.363155,1.019951,7.870367,-0.089229,0.096189,-0.100184,-16.086449,-3.496525,-39.065361,160.000000
1417,-0.363155,1.041510,7.923067,-0.089229,0.096189,-0.100184,-16.086449,-3.496525,-39.065361,160.000000
1420,-0.363155,1.041510,7.923067,-0.111600,0.084471,-0.111902,-16.086449,-3.496525,-39.065361,160.000000
1420,-0.327222,1.070256,8.011701,-0.111600,0.084471,-0.111902,-16.086449,-3.496525,-39.065361,160.000000
1422,-0.279313,1.041510,8.102729,-0.111600,0.084471,-0.111902,-16.086449,-3.496525,-39.065361,160.000000
1425,-0.279313,1.041510,8.102729,-0.137166,0.074351,-0.123620,-16.086449,-3.496525,-39.065361,160.000000
1425,-0.291290,1.000787,8.124288,-0.137166,0.074351,-0.123620,-16.086449,-3.496525,-39.065361,160.000000
1423,-0.291290,1.000787,8.124288,-0.137166,0.074351,-0.123620,-13.516563,-5.242287,-40.309525,160.000000
1427,-0.252963,1.046301,8.205734,-0.137166,0.074351,-0.123620,-13.516563,-5.242287,-40.309525,160.000000
1430,-0.252963,1.046301,8.205734,-0.163798,0.062101,-0.142795,-13.516563,-5.242287,-40.309525,160.000000
1430,-0.269731,1.070256,8.239271,-0.163798,0.062101,-0.142795,-13.516563,-5.242287,-40.309525,160.000000
1432,-0.284104,1.024742,8.279994,-0.163798,0.062101,-0.142795,-13.516563,-5.242287,-40.309525,160.000000
1435,-0.284104,1.024742,8.279994,-0.195756,0.053579,-0.162502,-13.516563,-5.242287,-40.309525,160.000000
1435,-0.279313,0.998392,8.433305,-0.195756,0.053579,-0.162502,-13.516563,-5.242287,-40.309525,160.000000
1440,-0.279313,0.998392,8.433305,-0.223985,0.053579,-0.178481,-13.516563,-5.242287,-40.309525,160.000000
1437,-0.262545,0.967251,8.519542,-0.223985,0.053579,-0.178481,-13.516563,-5.242287,-40.309525,160.000000
1440,-0.250567,0.988810,8.533915,-0.223985,0.053579,-0.178481,-13.516563,-5.242287,-40.309525,160.000000
1433,-0.250567,0.988810,8.533915,-0.223985,0.053579,-0.178481,-15.460960,-2.949371,-39.087372,160.000000
1442,-0.248172,0.962460,8.658480,-0.223985,0.053579,-0.178481,-15.460960,-2.949371,-39.087372,160.000000
1445,-0.248172,0.962460,8.658480,-0.246888,0.057840,-0.193395,-15.460960,-2.949371,-39.087372,160.000000
1445,-0.276917,0.931318,8.715971,-0.246888,0.057840,-0.193395,-15.460960,-2.949371,-39.087372,160.000000
1443,-0.276917,0.931318,8.715971,-0.246888,0.057840,-0.193395,-12.938278,-1.884205,-39.139816,160.000000
1447,-0.267335,0.928923,8.761485,-0.246888,0.057840,-0.193395,-12.938278,-1.884205,-39.139816,160.000000
1450,-0.267335,0.928923,8.761485,-0.258606,0.066362,-0.204580,-12.938278,-1.884205,-39.139816,160.000000
1450,-0.286499,0.912154,8.787835,-0.258606,0.066362,-0.204580,-12.938278,-1.884205,-39.139816,160.000000
1452,-0.298477,0.857059,8.790231,-0.258606,0.066362,-0.204580,-12.938278,-1.884205,-39.139816,160.000000
1455,-0.298477,0.857059,8.790231,-0.261269,0.070623,-0.214167,-12.938278,-1.884205,-39.139816,160.000000
1455,-0.310454,0.823522,8.895632,-0.261269,0.070623,-0.214167,-12.938278,-1.884205,-39.139816,160.000000
1457,-0.341595,0.799567,8.965100,-0.261269,0.070623,-0.214167,-12.938278,-1.884205,-39.139816,160.000000
1453,-0.341595,0.799567,8.965100,-0.261269,0.070623,-0.214167,-15.455212,-3.513371,-40.350281,160.000000
1460,-0.341595,0.799567,8.965100,-0.255410,0.065829,-0.220026,-15.455212,-3.513371,-40.350281,160.000000
1460,-0.312850,0.766030,8.979473,-0.255410,0.065829,-0.220026,-15.455212,-3.513371,-40.350281,160.000000
1462,-0.305663,0.780403,9.020196,-0.255410,0.065829,-0.220026,-15.455212,-3.513371,-40.350281,160.000000
1465,-0.305663,0.780403,9.020196,-0.245290,0.063166,-0.222157,-15.455212,-3.513371,-40.350281,160.000000
1465,-0.336804,0.775612,9.077688,-0.245290,0.063166,-0.222157,-15.455212,-3.513371,-40.350281,160.000000
1463,-0.336804,0.775612,9.077688,-0.245290,0.063166,-0.222157,-14.835468,-2.402214,-39.109383,160.000000
1467,-0.296081,0.775612,9.089665,-0.245290,0.063166,-0.222157,-14.835468,-2.402214,-39.109383,160.000000
1470,-0.296081,0.775612,9.089665,-0.229311,0.058373,-0.216298,-14.835468,-2.402214,-39.109383,160.000000
1470,-0.334409,0.797172,9.120807,-0.229311,0.058373,-0.216298,-14.835468,-2.402214,-39.109383,160.000000
1472,-0.353573,0.830708,9.156739,-0.229311,0.058373,-0.216298,-14.835468,-2.402214,-39.109383,160.000000
1475,-0.353573,0.830708,9.156739,-0.213865,0.061568,-0.202982,-14.835468,-2.402214,-39.109383,160.000000
1475,-0.387109,0.876222,9.180694,-0.213865,0.061568,-0.202982,-14.835468,-2.402214,-39.109383,160.000000
1473,-0.387109,0.876222,9.180694,-0.213865,0.061568,-0.202982,-16.094501,-2.933659,-38.442802,160.000000
1477,-0.382318,0.919341,9.137575,-0.213865,0.061568,-0.202982,-16.094501,-2.933659,-38.442802,160.000000
1480,-0.382318,0.919341,9.137575,-0.193092,0.071688,-0.181144,-16.094501,-2.933659,-38.442802,160.000000
1480,-0.430228,0.940900,9.154344,-0.193092,0.071688,-0.181144,-16.094501,-2.933659,-38.442802,160.000000
1482,-0.470951,0.916945,9.238186,-0.193092,0.071688,-0.181144,-16.094501,-2.933659,-38.442802,160.000000
1485,-0.470951,0.916945,9.238186,-0.172852,0.077547,-0.153447,-16.094501,-2.933659,-38.442802,160.000000
1485,-0.461369,0.972041,9.207045,-0.172852,0.077547,-0.153447,-16.094501,-2.933659,-38.442802,160.000000
1483,-0.461369,0.972041,9.207045,-0.172852,0.077547,-0.153447,-15.436790,-4.637966,-40.955040,160.000000
1487,-0.442205,0.976832,9.295676,-0.172852,0.077547,-0.153447,-15.436790,-4.637966,-40.955040,160.000000
1490,-0.442205,0.976832,9.295676,-0.153678,0.087135,-0.120957,-15.436790,-4.637966,-40.955040,160.000000
1490,-0.446996,0.960064,9.290885,-0.153678,0.087135,-0.120957,-15.436790,-4.637966,-40.955040,160.000000
1492,-0.475742,0.948087,9.281304,-0.153678,0.087135,-0.120957,-15.436790,-4.637966,-40.955040,160.000000
1495,-0.475742,0.948087,9.281304,-0.132905,0.086069,-0.088466,-15.436790,-4.637966,-40.955040,160.000000
1495,-0.470951,0.995996,9.341190,-0.132905,0.086069,-0.088466,-15.436790,-4.637966,-40.955040,160.000000
1493,-0.470951,0.995996,9.341190,-0.132905,0.086069,-0.088466,-15.473633,-2.388775,-39.745522,160.000000
1497,-0.427833,1.012765,9.322027,-0.132905,0.086069,-0.088466,-15.473633,-2.388775,-39.745522,160.000000
1500,-0.427833,1.012765,9.322027,-0.112132,0.084471,-0.061302,-15.473633,-2.388775,-39.745522,160.000000
1500,-0.444601,1.063070,9.317237,-0.112132,0.084471,-0.061302,-15.473633,-2.388775,-39.745522,160.000000
1502,-0.446996,1.077443,9.293282,-0.112132,0.084471,-0.061302,-15.473633,-2.388775,-39.745522,160.000000
1505,-0.446996,1.077443,9.293282,-0.095621,0.078080,-0.037333,-15.473633,-2.388775,-39.745522,160.000000
1505,-0.401482,1.031928,9.281304,-0.095621,0.078080,-0.037333,-15.473633,-2.388775,-39.745522,160.000000
1503,-0.401482,1.031928,9.281304,-0.095621,0.078080,-0.037333,-14.840080,-2.404484,-40.390091,160.000000
1507,-0.394296,1.029533,9.377124,-0.095621,0.078080,-0.037333,-14.840080,-2.404484,-40.390091,160.000000
1510,-0.394296,1.029533,9.377124,-0.079642,0.070090,-0.019224,-14.840080,-2.404484,-40.390091,160.000000
1510,-0.341595,1.072652,9.369936,-0.079642,0.070090,-0.019224,-14.840080,-2.404484,-40.390091,160.000000
1512,-0.355968,1.063070,9.326818,-0.079642,0.070090,-0.019224,-14.840080,-2.404484,-40.390091,160.000000
1515,-0.355968,1.063070,9.326818,-0.063663,0.058373,-0.007506,-14.840080,-2.404484,-40.390091,160.000000
1515,-0.310454,1.048697,9.341190,-0.063663,0.058373,-0.007506,-14.840080,-2.404484,-40.390091,160.000000
1513,-0.310454,1.048697,9.341190,-0.063663,0.058373,-0.007506,-13.543041,-3.554821,-39.082207,160.000000
1517,-0.274522,1.053488,9.353168,-0.063663,0.058373,-0.007506,-13.543041,-3.554821,-39.082207,160.000000
1520,-0.274522,1.053488,9.353168,-0.046619,0.043991,0.003679,-13.543041,-3.554821,-39.082207,160.000000
1520,-0.281708,1.031928,9.312446,-0.046619,0.043991,0.003679,-13.543041,-3.554821,-39.082207,160.000000
1522,-0.267335,1.043906,9.381914,-0.046619,0.043991,0.003679,-13.543041,-3.554821,-39.082207,160.000000
1525,-0.267335,1.043906,9.381914,-0.034901,0.028013,0.013267,-13.543041,-3.554821,-39.082207,160.000000
1525,-0.197867,1.055883,9.408264,-0.034901,0.028013,0.013267,-13.543041,-3.554821,-39.082207,160.000000
1523,-0.197867,1.055883,9.408264,-0.034901,0.028013,0.013267,-14.827415,-2.965076,-39.731934,160.000000
1527,-0.276917,1.072652,9.403474,-0.034901,0.028013,0.013267,-14.827415,-2.965076,-39.731934,160.000000
1530,-0.276917,1.072652,9.403474,-0.023183,0.021621,0.016995,-14.827415,-2.965076,-39.731934,160.000000
1530,-0.305663,1.063070,9.420241,-0.023183,0.021621,0.016995,-14.827415,-2.965076,-39.731934,160.000000
1532,-0.315245,1.070256,9.372333,-0.023183,0.021621,0.016995,-14.827415,-2.965076,-39.731934,160.000000
1535,-0.315245,1.070256,9.372333,-0.011998,0.015229,0.022854,-14.827415,-2.965076,-39.731934,160.000000
1535,-0.377528,1.118166,9.405869,-0.011998,0.015229,0.022854,-14.827415,-2.965076,-39.731934,160.000000
1533,-0.377528,1.118166,9.405869,-0.011998,0.015229,0.022854,-15.463268,-2.950504,-39.727722,160.000000
1537,-0.394296,1.089420,9.413055,-0.011998,0.015229,0.022854,-15.463268,-2.950504,-39.727722,160.000000
1540,-0.394296,1.089420,9.413055,-0.006139,-0.003413,0.030311,-15.463268,-2.950504,-39.727722,160.000000
1540,-0.365550,1.118166,9.463361,-0.006139,-0.003413,0.030311,-15.463268,-2.950504,-39.727722,160.000000
1542,-0.346386,1.084629,9.458570,-0.006139,-0.003413,0.030311,-15.463268,-2.950504,-39.727722,160.000000
1545,-0.346386,1.084629,9.458570,-0.003476,-0.024185,0.036170,-15.463268,-2.950504,-39.727722,160.000000
1545,-0.353573,1.089420,9.484920,-0.003476,-0.024185,0.036170,-15.463268,-2.950504,-39.727722,160.000000
1543,-0.353573,1.089420,9.484920,-0.003476,-0.024185,0.036170,-12.277088,-3.019970,-37.827713,160.000000
1547,-0.346386,1.127748,9.535224,-0.003476,-0.024185,0.036170,-12.277088,-3.019970,-37.827713,160.000000
1550,-0.346386,1.127748,9.535224,0.000253,-0.048154,0.040431,-12.277088,-3.019970,-37.827713,160.000000
1550,-0.348782,1.178053,9.674163,0.000253,-0.048154,0.040431,-12.277088,-3.019970,-37.827713,160.000000
1552,-0.375132,1.190030,9.693326,0.000253,-0.048154,0.040431,-12.277088,-3.019970,-37.827713,160.000000
1555,-0.375132,1.190030,9.693326,0.008775,-0.058274,0.047355,-12.277088,-3.019970,-37.827713,160.000000
1555,-0.382318,1.216380,9.724467,0.008775,-0.058274,0.047355,-12.277088,-3.019970,-37.827713,160.000000
1553,-0.382318,1.216380,9.724467,0.008775,-0.058274,0.047355,-15.486298,-1.828178,-40.403679,160.000000
1557,-0.399087,1.261894,9.769981,0.008775,-0.058274,0.047355,-15.486298,-1.828178,-40.403679,160.000000
1560,-0.399087,1.261894,9.769981,0.017830,-0.043893,0.054812,-15.486298,-1.828178,-40.403679,160.000000
1560,-0.420646,1.273872,9.803518,0.017830,-0.043893,0.054812,-15.486298,-1.828178,-40.403679,160.000000
1562,-0.408669,1.261894,9.779563,0.017830,-0.043893,0.054812,-15.486298,-1.828178,-40.403679,160.000000
1565,-0.408669,1.261894,9.779563,0.027950,-0.023653,0.067062,-15.486298,-1.828178,-40.403679,160.000000
1565,-0.379923,1.276267,9.801123,0.027950,-0.023653,0.067062,-15.486298,-1.828178,-40.403679,160.000000
1563,-0.379923,1.276267,9.801123,0.027950,-0.023653,0.067062,-13.558014,-2.995361,-40.380714,160.000000
1567,-0.408669,1.281058,9.803518,0.027950,-0.023653,0.067062,-13.558014,-2.995361,-40.380714,160.000000
1570,-0.408669,1.281058,9.803518,0.039135,-0.010870,0.077182,-13.558014,-2.995361,-40.380714,160.000000
1570,-0.420646,1.300222,9.762795,0.039135,-0.010870,0.077182,-13.558014,-2.995361,-40.380714,160.000000
1572,-0.432624,1.326572,9.676558,0.039135,-0.010870,0.077182,-13.558014,-2.995361,-40.380714,160.000000
1575,-0.432624,1.326572,9.676558,0.046592,-0.008206,0.086237,-13.558014,-2.995361,-40.380714,160.000000
1575,-0.449392,1.314595,9.753214,0.046592,-0.008206,0.086237,-13.558014,-2.995361,-40.380714,160.000000
1573,-0.449392,1.314595,9.753214,0.046592,-0.008206,0.086237,-13.558014,-2.995361,-40.380714,160.000000
1577,-0.399087,1.331363,9.760400,0.046592,-0.008206,0.086237,-13.558014,-2.995361,-40.380714,160.000000
1580,-0.399087,1.331363,9.760400,0.052983,-0.009804,0.095292,-13.558014,-2.995361,-40.380714,160.000000
1580,-0.377528,1.324177,9.734050,0.052983,-0.009804,0.095292,-13.558014,-2.995361,-40.380714,160.000000
1582,-0.358364,1.312199,9.803518,0.052983,-0.009804,0.095292,-13.558014,-2.995361,-40.380714,160.000000
1585,-0.358364,1.312199,9.803518,0.058842,-0.013533,0.102216,-13.558014,-2.995361,-40.380714,160.000000
1585,-0.389505,1.281058,9.793937,0.058842,-0.013533,0.102216,-13.558014,-2.995361,-40.380714,160.000000
1583,-0.389505,1.281058,9.793937,0.058842,-0.013533,0.102216,-15.463268,-2.950504,-39.727722,160.000000
1587,-0.446996,1.352923,9.750817,0.058842,-0.013533,0.102216,-15.463268,-2.950504,-39.727722,160.000000
1590,-0.446996,1.352923,9.750817,0.055114,-0.015131,0.102749,-15.463268,-2.950504,-39.727722,160.000000
1590,-0.427833,1.364900,9.762795,0.055114,-0.015131,0.102749,-15.463268,-2.950504,-39.727722,160.000000
1592,-0.432624,1.324177,9.808310,0.055114,-0.015131,0.102749,-15.463268,-2.950504,-39.727722,160.000000
1595,-0.432624,1.324177,9.808310,0.053516,-0.020457,0.105412,-15.463268,-2.950504,-39.727722,160.000000
1595,-0.449392,1.338550,9.846637,0.053516,-0.020457,0.105412,-15.463268,-2.950504,-39.727722,160.000000
1593,-0.449392,1.338550,9.846637,0.053516,-0.020457,0.105412,-14.798630,-4.651405,-40.318901,160.000000
1597,-0.466160,1.364900,9.829868,0.053516,-0.020457,0.105412,-14.798630,-4.651405,-40.318901,160.000000
1600,-0.466160,1.364900,9.829868,0.048722,-0.028446,0.104347,-14.798630,-4.651405,-40.318901,160.000000
1600,-0.466160,1.338550,9.863405,0.048722,-0.028446,0.104347,-14.798630,-4.651405,-40.318901,160.000000
1602,-0.487720,1.355318,9.916105,0.048722,-0.028446,0.104347,-14.798630,-4.651405,-40.318901,160.000000
1605,-0.487720,1.355318,9.916105,0.037537,-0.032708,0.104347,-14.798630,-4.651405,-40.318901,160.000000
1605,-0.492510,1.357714,9.990365,0.037537,-0.032708,0.104347,-14.798630,-4.651405,-40.318901,160.000000
1603,-0.492510,1.357714,9.990365,0.037537,-0.032708,0.104347,-14.817051,-3.526806,-39.714142,160.000000
1607,-0.485324,1.357714,10.026298,0.037537,-0.032708,0.104347,-14.817051,-3.526806,-39.714142,160.000000
1610,-0.485324,1.357714,10.026298,0.030080,-0.034838,0.100086,-14.817051,-3.526806,-39.714142,160.000000
1610,-0.461369,1.352923,10.088580,0.030080,-0.034838,0.100086,-14.817051,-3.526806,-39.714142,160.000000
1612,-0.473347,1.338550,10.141280,0.030080,-0.034838,0.100086,-14.817051,-3.526806,-39.714142,160.000000
1615,-0.473347,1.338550,10.141280,0.022623,-0.030577,0.098488,-14.817051,-3.526806,-39.714142,160.000000
1615,-0.509279,1.340945,10.258659,0.022623,-0.030577,0.098488,-14.817051,-3.526806,-39.714142,160.000000
1613,-0.509279,1.340945,10.258659,0.022623,-0.030577,0.098488,-13.511951,-5.240017,-39.028816,160.000000
1617,-0.490115,1.338550,10.253868,0.022623,-0.030577,0.098488,-13.511951,-5.240017,-39.028816,160.000000
1620,-0.490115,1.338550,10.253868,0.015699,-0.022588,0.095292,-13.511951,-5.240017,-39.028816,160.000000
1620,-0.542816,1.307408,10.342501,0.015699,-0.022588,0.095292,-13.511951,-5.240017,-39.028816,160.000000
1622,-0.516465,1.271476,10.385619,0.015699,-0.022588,0.095292,-13.511951,-5.240017,-39.028816,160.000000
1625,-0.516465,1.271476,10.385619,0.012503,-0.023120,0.092629,-13.511951,-5.240017,-39.028816,160.000000
1625,-0.542816,1.281058,10.426342,0.012503,-0.023120,0.092629,-13.511951,-5.240017,-39.028816,160.000000
1623,-0.542816,1.281058,10.426342,0.012503,-0.023120,0.092629,-12.914108,-3.572800,-41.007484,160.000000
1627,-0.571561,1.223567,10.467066,0.012503,-0.023120,0.092629,-12.914108,-3.572800,-41.007484,160.000000
1630,-0.571561,1.223567,10.467066,0.005047,-0.022588,0.093694,-12.914108,-3.572800,-41.007484,160.000000
1630,-0.516465,1.218776,10.555698,0.005047,-0.022588,0.093694,-12.914108,-3.572800,-41.007484,160.000000
1632,-0.504488,1.204403,10.608399,0.005047,-0.022588,0.093694,-12.914108,-3.572800,-41.007484,160.000000
1635,-0.504488,1.204403,10.608399,-0.001878,-0.023120,0.095824,-12.914108,-3.572800,-41.007484,160.000000
1635,-0.545211,1.151702,10.718592,-0.001878,-0.023120,0.095824,-12.914108,-3.572800,-41.007484,160.000000
1633,-0.545211,1.151702,10.718592,-0.001878,-0.023120,0.095824,-14.825108,-2.963943,-39.091583,160.000000
1637,-0.581143,1.087024,10.771292,-0.001878,-0.023120,0.095824,-14.825108,-2.963943,-39.091583,160.000000
1640,-0.581143,1.087024,10.771292,-0.011998,-0.020990,0.099553,-14.825108,-2.963943,-39.091583,160.000000
1640,-0.597912,1.046301,10.893461,-0.011998,-0.020990,0.099553,-14.825108,-2.963943,-39.091583,160.000000
1642,-0.633844,1.022346,10.946161,-0.011998,-0.020990,0.099553,-14.825108,-2.963943,-39.091583,160.000000
1645,-0.633844,1.022346,10.946161,-0.019987,-0.021522,0.105944,-14.825108,-2.963943,-39.091583,160.000000
1645,-0.609889,1.031928,11.085099,-0.019987,-0.021522,0.105944,-14.825108,-2.963943,-39.091583,160.000000
1643,-0.609889,1.031928,11.085099,-0.019987,-0.021522,0.105944,-15.483994,-1.827042,-39.763321,160.000000
1647,-0.573957,1.017556,11.259970,-0.019987,-0.021522,0.105944,-15.483994,-1.827042,-39.763321,160.000000
1650,-0.573957,1.017556,11.259970,-0.021585,-0.024185,0.113934,-15.483994,-1.827042,-39.763321,160.000000
1650,-0.629053,0.960064,11.334229,-0.021585,-0.024185,0.113934,-15.483994,-1.827042,-39.763321,160.000000
1652,-0.650612,0.876222,11.451608,-0.021585,-0.024185,0.113934,-15.483994,-1.827042,-39.763321,160.000000
1655,-0.650612,0.876222,11.451608,-0.024248,-0.033240,0.119793,-15.483994,-1.827042,-39.763321,160.000000
1655,-0.619471,0.866640,11.557009,-0.024248,-0.033240,0.119793,-15.483994,-1.827042,-39.763321,160.000000
1653,-0.619471,0.866640,11.557009,-0.024248,-0.033240,0.119793,-13.555710,-2.994225,-39.740356,160.000000
1657,-0.597912,0.794776,11.616896,-0.024248,-0.033240,0.119793,-13.555710,-2.994225,-39.740356,160.000000
1660,-0.597912,0.794776,11.616896,-0.020520,-0.048686,0.123521,-13.555710,-2.994225,-39.740356,160.000000
1660,-0.619471,0.689375,11.710320,-0.020520,-0.048686,0.123521,-13.555710,-2.994225,-39.740356,160.000000
1662,-0.590725,0.629488,11.909143,-0.020520,-0.048686,0.123521,-13.555710,-2.994225,-39.740356,160.000000
1665,-0.590725,0.629488,11.909143,-0.012530,-0.066796,0.121391,-13.555710,-2.994225,-39.740356,160.000000
1665,-0.602702,0.552833,12.036104,-0.012530,-0.066796,0.121391,-13.555710,-2.994225,-39.740356,160.000000
1663,-0.602702,0.552833,12.036104,-0.012530,-0.066796,0.121391,-16.107174,-2.373066,-39.100960,160.000000
1667,-0.538025,0.490550,12.050477,-0.012530,-0.066796,0.121391,-16.107174,-2.373066,-39.100960,160.000000
1669,-0.538025,0.490550,12.050477,0.002916,-0.085438,0.117130,-16.107174,-2.373066,-39.100960,160.000000
1669,-0.466160,0.457014,12.136714,0.002916,-0.085438,0.117130,-16.107174,-2.373066,-39.100960,160.000000
1672,-0.451787,0.375567,12.210975,0.002916,-0.085438,0.117130,-16.107174,-2.373066,-39.100960,160.000000
1675,-0.451787,0.375567,12.210975,0.024754,-0.109939,0.109140,-16.107174,-2.373066,-39.100960,160.000000
1675,-0.446996,0.375567,12.275653,0.024754,-0.109939,0.109140,-16.107174,-2.373066,-39.100960,160.000000
1673,-0.446996,0.375567,12.275653,0.024754,-0.109939,0.109140,-14.837776,-2.403347,-39.749733,160.000000
1677,-0.389505,0.363590,12.309189,0.024754,-0.109939,0.109140,-14.837776,-2.403347,-39.749733,160.000000
1680,-0.389505,0.363590,12.309189,0.052983,-0.129114,0.097422,-14.837776,-2.403347,-39.749733,160.000000
1680,-0.324827,0.361194,12.309189,0.052983,-0.129114,0.097422,-14.837776,-2.403347,-39.749733,160.000000
1682,-0.300872,0.413895,12.316376,0.052983,-0.129114,0.097422,-14.837776,-2.403347,-39.749733,160.000000
1685,-0.300872,0.413895,12.316376,0.083876,-0.134973,0.087302,-14.837776,-2.403347,-39.749733,160.000000
1685,-0.274522,0.473782,12.359493,0.083876,-0.134973,0.087302,-14.837776,-2.403347,-39.749733,160.000000
1683,-0.274522,0.473782,12.359493,0.083876,-0.134973,0.087302,-13.514259,-5.241150,-39.669167,160.000000
1687,-0.334409,0.564810,12.347516,0.083876,-0.134973,0.087302,-13.514259,-5.241150,-39.669167,160.000000
1689,-0.334409,0.564810,12.347516,0.117965,-0.131244,0.072921,-13.514259,-5.241150,-39.669167,160.000000
1689,-0.274522,0.667816,12.230139,0.117965,-0.131244,0.072921,-13.514259,-5.241150,-39.669167,160.000000
1692,-0.298477,0.849872,12.117551,0.117965,-0.131244,0.072921,-13.514259,-5.241150,-39.669167,160.000000
1691,-0.298477,0.849872,12.117551,0.117965,-0.131244,0.072921,-13.514259,-5.241150,-39.669167,171.000000
1694,-0.298477,0.849872,12.117551,0.143531,-0.118994,0.062801,-13.514259,-5.241150,-39.669167,171.000000
1694,-0.305663,0.940900,12.048081,0.143531,-0.118994,0.062801,-13.514259,-5.241150,-39.669167,171.000000
1693,-0.305663,0.940900,12.048081,0.143531,-0.118994,0.062801,-13.543041,-3.554821,-39.082207,171.000000
1697,-0.339200,1.063070,11.892375,0.143531,-0.118994,0.062801,-13.543041,-3.554821,-39.082207,171.000000
1699,-0.339200,1.063070,11.892375,0.160042,-0.097689,0.051083,-13.543041,-3.554821,-39.082207,171.000000
1699,-0.370341,1.101397,11.751042,0.160042,-0.097689,0.051083,-13.543041,-3.554821,-39.082207,171.000000
1702,-0.458974,1.173262,11.636060,0.160042,-0.097689,0.051083,-13.543041,-3.554821,-39.082207,171.000000
1705,-0.458974,1.173262,11.636060,0.164836,-0.071590,0.045757,-13.543041,-3.554821,-39.082207,171.000000
1705,-0.530838,1.156493,11.475562,0.164836,-0.071590,0.045757,-13.543041,-3.554821,-39.082207,171.000000
1703,-0.530838,1.156493,11.475562,0.164836,-0.071590,0.045757,-15.473633,-2.388775,-39.745522,171.000000
1707,-0.593121,1.137330,11.360579,0.164836,-0.071590,0.045757,-15.473633,-2.388775,-39.745522,171.000000
1709,-0.593121,1.137330,11.360579,0.151520,-0.050284,0.047355,-15.473633,-2.388775,-39.745522,171.000000
1709,-0.617075,1.070256,11.276737,0.151520,-0.050284,0.047355,-15.473633,-2.388775,-39.745522,171.000000
1712,-0.595516,0.967251,11.188105,0.151520,-0.050284,0.047355,-15.473633,-2.388775,-39.745522,171.000000
1714,-0.595516,0.967251,11.188105,0.119562,-0.046556,0.050018,-15.473633,-2.388775,-39.745522,171.000000
1714,-0.607493,0.878618,11.118636,0.119562,-0.046556,0.050018,-15.473633,-2.388775,-39.745522,171.000000
1713,-0.607493,0.878618,11.118636,0.119562,-0.046556,0.050018,-11.635487,-3.598545,-39.094841,171.000000
1717,-0.650612,0.756448,11.077912,0.119562,-0.046556,0.050018,-11.635487,-3.598545,-39.094841,171.000000
1719,-0.650612,0.756448,11.077912,0.078017,-0.061470,0.047888,-11.635487,-3.598545,-39.094841,171.000000
